time,time_milisec,ax,ay,az,resultant,MA_x,MA_y,MA_z,MA_R
38:09.0,1.42E+12,-2.3743625,-15.572866,2.590513,15.96441387,0,0,0,0
38:09.0,1.42E+12,0.7933502,-12.465628,1.2301419,12.55127623,0,0,0,0
38:09.0,1.42E+12,-1.0788066,-8.031848,1.7486637,8.290490378,0,0,0,0
38:09.0,1.42E+12,-2.3281088,-3.9489381,2.8113039,5.377511722,0,0,0,0
38:09.1,1.42E+12,-4.5662546,1.0563533,2.0728893,5.124786183,0,0,0,0
38:09.1,1.42E+12,-6.2863274,4.487219,0.42137375,7.735024394,0,0,0,0
38:09.1,1.42E+12,-5.968688,5.296137,0.87148774,8.027066366,0,0,0,0
38:09.1,1.42E+12,-3.7738023,2.49097,-0.4816983,4.547367216,0,0,0,0
38:09.1,1.42E+12,0.15447876,-3.822152,-7.483987,8.404925402,0,0,0,0
38:09.1,1.42E+12,2.940036,-16.040045,-16.445251,23.15973091,0,0,0,0
38:09.2,1.42E+12,2.7848089,-17.60968,-18.09542,25.40275999,0,0,0,0
38:09.2,1.42E+12,-1.3846207,-4.1737704,7.23251,8.464439422,0,0,0,0
38:09.2,1.42E+12,-7.8962297,-7.0542307,10.471325,14.89165073,0,0,0,0
38:09.2,1.42E+12,-12.223581,-11.130404,10.309062,19.48277662,0,0,0,0
38:09.2,1.42E+12,-9.24762,-3.8791833,6.7216225,12.07256177,0,0,0,0
38:09.3,1.42E+12,-10.384206,-10.135573,9.114098,17.13558743,0,0,0,0
38:09.3,1.42E+12,-9.862989,-15.930922,13.775404,23.25585051,0,0,0,0
38:09.3,1.42E+12,-6.384074,-19.084564,-2.6683512,20.30017443,0,0,0,0
38:09.4,1.42E+12,0.18381774,-16.679665,-10.530452,19.72651598,0,0,0,0
38:09.4,1.42E+12,0.65518755,-16.61485,1.1475137,16.66731229,0,0,0,0
38:09.4,1.42E+12,-0.17797989,-17.779726,-0.14175522,17.78118185,0,0,0,0
38:09.4,1.42E+12,-0.16375946,-15.703694,-9.783356,18.50261811,0,0,0,0
38:09.4,1.42E+12,0.062420197,-12.843592,-10.697354,16.71511694,0,0,0,0
38:09.4,1.42E+12,-1.0475217,-10.958712,-7.067104,13.0818435,0,0,0,0
38:09.4,1.42E+12,-0.6439609,-7.385342,-9.237291,11.8442183,0,0,0,0
38:09.5,1.42E+12,2.5577312,-4.890929,-9.705368,11.1650053,0,0,0,0
38:09.5,1.42E+12,3.3114138,-3.2796798,-1.179098,4.807497586,0,0,0,0
38:09.5,1.42E+12,0.35775605,-1.6197816,2.355801,2.881228935,0,0,0,0
38:09.5,1.42E+12,-0.47705796,0.09654923,0.65907943,0.819323957,0,0,0,0
38:09.5,1.42E+12,-0.7084767,-2.6946964,1.3395643,3.091562782,0,0,0,0
38:09.6,1.42E+12,-1.3073813,-13.0208235,-1.69268,13.1953119,0,0,0,0
38:09.6,1.42E+12,-6.3146186,-18.60122,-6.4426026,20.67333843,0,0,0,0
38:09.7,1.42E+12,-10.92563,-19.41777,-5.858068,23.03771133,0,0,0,0
38:09.7,1.42E+12,-8.498727,-19.539917,0.19070344,21.3089907,0,0,0,0
38:09.7,1.42E+12,-7.7927947,-18.984272,5.149891,21.15777895,0,0,0,0
38:09.7,1.42E+12,-1.0719209,-16.858543,3.2925532,17.21047335,0,0,0,0
38:09.7,1.42E+12,1.556613,-12.0459,1.2819343,12.21352146,0,0,0,0
38:09.7,1.42E+12,-0.8656499,-8.277786,1.5905924,8.473551498,0,0,0,0
38:09.7,1.42E+12,-3.035388,-4.687203,1.9984941,5.931056478,0,0,0,0
38:09.7,1.42E+12,-5.7119718,0.3131488,1.3736933,5.883172384,0,0,0,0
38:09.8,1.42E+12,-8.204887,4.3069935,-1.0648856,9.327611968,0,0,0,0
38:09.8,1.42E+12,-8.186326,5.940846,-0.52480865,10.12842578,0,0,0,0
38:09.8,1.42E+12,-5.64566,4.4170146,0.24519013,7.172420304,0,0,0,0
38:09.8,1.42E+12,-0.7485933,-1.0277628,-0.8614586,1.53583828,0,0,0,0
38:09.8,1.42E+12,4.4560833,-11.059452,-9.8590975,15.47158558,0,0,0,0
38:09.9,1.42E+12,3.064278,-17.8652,-14.77742,23.38647713,0,0,0,0
38:09.9,1.42E+12,2.8301647,-8.909922,-8.851244,12.87404609,0,0,0,0
38:09.9,1.42E+12,-0.6436615,-0.41837996,9.536519,9.567368319,0,0,0,0
38:09.9,1.42E+12,-9.653126,-11.879597,8.667576,17.59075155,0,0,0,0
38:10.0,1.42E+12,-11.82975,-16.637453,7.6556797,21.80268926,-3.034127476,-8.603128843,-0.751871418,13.1042788
38:10.0,1.42E+12,-4.6363087,-7.1700897,3.4009278,9.190857118,-3.0793664,-8.435073317,-0.735663122,12.96880766
38:10.0,1.42E+12,-8.058193,-7.028634,4.574038,11.63004703,-3.256397264,-8.326333437,-0.6687852,12.95038308
38:10.0,1.42E+12,-9.053174,-11.4818735,7.7886033,16.56670516,-3.415884612,-8.395333947,-0.547986408,13.11590737
38:10.0,1.42E+12,-8.628656,-17.627644,2.270778,19.75712454,-3.541895556,-8.668908065,-0.558796926,13.40349963
38:10.0,1.42E+12,-0.48843428,-18.593136,-5.322781,19.34619528,-3.46033915,-9.061897851,-0.706710332,13.68792781
38:10.1,1.42E+12,4.4848237,-17.649797,-0.17603393,18.21153386,-3.244916128,-9.504638171,-0.718658485,13.897458
38:10.1,1.42E+12,3.2022908,-18.332079,-0.8267308,18.6280238,-3.061496552,-9.977202491,-0.752622856,14.10947715
38:10.1,1.42E+12,-0.6024971,-17.524807,-6.1230173,18.57345428,-2.998070448,-10.37751803,-0.865449236,14.38999889
38:10.1,1.42E+12,-1.2740006,-13.232932,-9.346563,16.25090172,-3.026640035,-10.56573363,-0.902700756,14.54691842
38:10.1,1.42E+12,-0.3902385,-11.357033,-8.7439165,14.3384295,-3.093245525,-10.47207339,-0.748674066,14.37049239
38:10.2,1.42E+12,-1.8035994,-7.224726,-5.0389714,8.991155062,-3.185013691,-10.26437431,-0.487545094,14.04226029
38:10.2,1.42E+12,-1.3114228,-4.587061,-8.647517,9.876259851,-3.183549733,-10.27264012,-0.805145634,14.0704967
38:10.2,1.42E+12,1.9583775,-1.791325,-6.126011,6.676233853,-2.986457589,-10.16738201,-1.137092354,13.90618836
38:10.2,1.42E+12,3.1292427,-0.9580078,-1.8859282,3.777123773,-2.679401115,-9.963934085,-1.380992158,13.5920753
38:10.3,1.42E+12,-0.08083191,-0.1857637,0.55549484,0.591283745,-2.496065353,-9.890065693,-1.504314711,13.36244974
38:10.3,1.42E+12,-1.145418,-1.5542179,1.5631993,2.484183513,-2.311289593,-9.718438591,-1.655332685,13.06942167
38:10.3,1.42E+12,-1.2249027,-9.531579,0.98225737,9.660031801,-2.138527867,-9.590451731,-1.911195618,12.79750529
38:10.3,1.42E+12,-3.0294003,-18.200651,-0.66162413,18.4629009,-2.071434393,-9.572773471,-1.871061076,12.76075982
38:10.3,1.42E+12,-13.731545,-19.363283,-6.446345,24.59771169,-2.349741648,-9.626445831,-1.789378936,12.85818374
38:10.3,1.42E+12,-13.477524,-17.160913,-3.4587076,22.09305878,-2.632395879,-9.637367091,-1.881503362,12.96669867
38:10.4,1.42E+12,-9.739048,-19.011366,-3.5112484,21.64740073,-2.823617241,-9.661999891,-1.948893226,13.04402304
38:10.4,1.42E+12,-7.4347396,-17.508492,6.995253,20.26712139,-2.969036844,-9.698095851,-1.613321046,13.07931311
38:10.4,1.42E+12,0.045954436,-16.40304,4.9211664,17.12541129,-2.969366159,-9.769284811,-1.300950638,13.087519
38:10.4,1.42E+12,2.376907,-9.381142,1.1461666,9.745214722,-2.900877585,-9.737733411,-1.136685226,13.02078642
38:10.4,1.42E+12,-1.5468832,-5.757178,3.0660741,6.703637561,-2.918936031,-9.705170131,-0.890617924,12.91797481
38:10.5,1.42E+12,-4.2132883,-2.030677,3.4664915,5.821684524,-3.054356421,-9.647965091,-0.627180734,12.81110839
38:10.5,1.42E+12,-6.0089545,1.8842816,2.6629624,6.837354757,-3.240763787,-9.544685863,-0.550339526,12.85170553
38:10.5,1.42E+12,-6.3574295,5.849536,2.0327728,8.875029381,-3.375067498,-9.395299511,-0.55680009,12.97158154
38:10.5,1.42E+12,-5.9121056,7.293433,1.1249107,9.455822631,-3.483768451,-9.251361835,-0.547483465,13.14431152
38:10.5,1.42E+12,-3.7630248,5.5154305,-1.8961071,6.940860997,-3.544859413,-9.087159297,-0.612196893,13.22129748
38:10.6,1.42E+12,1.9585272,0.2932402,-7.793693,8.041359909,-3.479541243,-8.820878023,-0.734217153,13.11821844
38:10.6,1.42E+12,6.9487,-15.597565,-17.31659,24.31939051,-3.214274871,-8.760804923,-0.951696901,13.19113948
38:10.6,1.42E+12,4.1378455,-18.933977,-18.829494,27.02160422,-2.913005361,-8.751129063,-1.211125421,13.27081734
38:10.6,1.42E+12,-2.4286995,-4.4786863,8.785081,10.15553349,-2.791604811,-8.449904449,-1.039237869,13.04774819
38:10.6,1.42E+12,-7.481143,-8.133187,8.939111,14.21351247,-2.785371777,-8.232882749,-0.963453469,12.90886287
38:10.7,1.42E+12,-11.813284,-13.225148,12.00279,21.41320121,-3.000199039,-8.160214849,-0.789248733,12.99291742
38:10.7,1.42E+12,-10.835816,-2.928061,9.069041,14.43038303,-3.248047619,-7.977858069,-0.633506599,13.03725465
38:10.7,1.42E+12,-14.549145,-8.026309,7.103628,18.07099298,-3.521717521,-7.972828529,-0.523245887,13.22920348
38:10.7,1.42E+12,-14.039305,-15.310013,11.89202,23.93572064,-3.741795861,-8.185284729,-0.325375369,13.58929677
38:10.7,1.42E+12,-7.80941,-18.993402,0.58483386,20.5445427,-3.783744625,-8.571415745,-0.341152558,13.88252417
38:10.8,1.42E+12,2.0007393,-19.145336,-10.311607,21.8374927,-3.579632099,-9.040462335,-0.526086986,14.13272179
38:10.8,1.42E+12,4.3815384,-18.21637,-0.99363375,18.76223128,-3.328274811,-9.523606655,-0.535463488,14.3053979
38:10.8,1.42E+12,3.6485128,-19.17258,-2.9157865,19.73325316,-3.142391355,-9.995398547,-0.598683021,14.55661455
38:10.8,1.42E+12,2.0389102,-16.8069,-7.719447,18.60695849,-3.086641285,-10.31098129,-0.735842789,14.89803696
38:10.8,1.42E+12,1.3953983,-11.750115,-10.747051,15.98472534,-3.147854985,-10.32479455,-0.753601859,14.90829975
38:10.9,1.42E+12,-0.19160156,-9.75207,-6.5984287,11.7761981,-3.212972576,-10.16253195,-0.590022033,14.67609417
38:10.9,1.42E+12,-0.5019063,-6.181246,-8.490344,10.5140693,-3.279613996,-10.10795843,-0.582804033,14.62889464
38:10.9,1.42E+12,2.2767653,-3.4956808,-7.8198886,8.863075211,-3.22120546,-10.16950445,-0.929932185,14.61480878
38:11.0,1.42E+12,4.049529,-1.757196,-2.869383,5.264957902,-2.94715236,-9.967056428,-1.160671365,14.3682929
38:11.0,1.42E+12,1.3609699,-1.4672488,1.1837384,2.325144019,-2.683337962,-9.663652344,-1.290110191,13.978742
38:11.0,1.42E+12,-0.39772293,-0.7373666,0.33694932,0.903010452,-2.598566247,-9.534997882,-1.35138976,13.81298506
38:11.0,1.42E+12,-1.6383431,-3.165617,0.60459274,3.615360492,-2.470169249,-9.457737542,-1.430778666,13.65269133
38:11.0,1.42E+12,-1.047372,-13.568983,-1.1509566,13.65792769,-2.310053209,-9.499479732,-1.609569864,13.59451578
38:11.0,1.42E+12,-6.234236,-18.763332,-6.3456044,20.76523589,-2.262164809,-9.522193492,-1.781897512,13.61467801
38:11.0,1.42E+12,-11.991264,-18.285376,-4.8918276,22.40703829,-2.492221403,-9.516038292,-1.773278444,13.67589487
38:11.1,1.42E+12,-9.563462,-19.045645,-3.1713052,21.5465444,-2.773187117,-9.543955252,-1.833183869,13.74259508
38:11.1,1.42E+12,-5.043911,-19.508331,5.7625666,20.95765231,-2.938111153,-9.567480292,-1.701397921,13.78918765
38:11.1,1.42E+12,-2.1142035,-17.478703,6.0891876,18.62936179,-2.968345281,-9.566558212,-1.457153823,13.7903058
38:11.1,1.42E+12,1.215173,-13.301788,2.2115011,13.53901572,-2.918561809,-9.567935332,-1.225992541,13.73606808
38:11.1,1.42E+12,0.07948471,-7.8885956,2.6993368,8.338025997,-2.909167345,-9.498566584,-0.997127475,13.61606001
38:11.2,1.42E+12,-2.7738817,-4.088897,3.0335915,5.797945822,-2.928572991,-9.435850004,-0.835676217,13.55219583
38:11.2,1.42E+12,-5.848937,0.74604857,2.6256897,6.454525459,-3.019323275,-9.329187813,-0.610212083,13.48376114
38:11.2,1.42E+12,-7.3359447,4.4484496,0.7518864,8.61220771,-3.205209719,-9.204392321,-0.472654135,13.52248062
38:11.2,1.42E+12,-7.024742,6.228847,1.45707,9.500978271,-3.408289413,-9.060655225,-0.405794171,13.63695771
38:11.2,1.42E+12,-5.1485434,6.010751,0.53588563,7.93245234,-3.509643643,-8.936724931,-0.406186355,13.78378108
38:11.3,1.42E+12,-0.45699966,1.4328204,-1.4000386,2.05473382,-3.495875276,-8.876984165,-0.465451113,13.77519209
38:11.3,1.42E+12,7.5073385,-11.994408,-15.408059,20.91970929,-3.321230452,-8.926240745,-0.793257441,14.00038564
38:11.3,1.42E+12,5.7134686,-18.549128,-18.941011,27.11965654,-3.146373074,-8.933210285,-1.158845178,14.17352075
38:11.3,1.42E+12,0.49157774,-12.686419,1.890868,12.83597513,-2.861910619,-8.799673005,-0.992100918,13.93828602
38:11.3,1.42E+12,-6.783743,-10.981613,10.515034,16.6487517,-2.728034999,-8.676087005,-0.712626086,13.82939988
38:11.4,1.42E+12,-11.046728,-13.588892,12.610826,21.58057269,-2.754188599,-8.567637525,-0.390184598,13.82806331
38:11.4,1.42E+12,-8.729397,-0.7092252,10.733729,13.85345844,-2.780081747,-8.231652189,-0.315415078,13.69979006
38:11.4,1.42E+12,-12.089759,-1.7775536,7.955806,14.58138603,-3.022796016,-7.939142461,-0.254722286,13.64890955
38:11.4,1.42E+12,-12.505445,-15.021263,9.89188,21.9060217,-3.320443056,-8.051944881,-0.079808018,13.89212569
38:11.4,1.42E+12,-8.841064,-18.96092,7.4374337,22.20352044,-3.466326672,-8.316019721,0.007619174,14.20212335
38:11.5,1.42E+12,0.3091072,-19.201769,-14.154266,23.85679622,-3.375878762,-8.659441561,-0.344795976,14.56282558
38:11.5,1.42E+12,4.579876,-17.593964,-4.643045,18.76381359,-3.164102152,-9.049006473,-0.490916124,14.80135476
38:11.5,1.42E+12,3.6447706,-19.059565,-1.8402731,19.49199774,-2.96405815,-9.547188493,-0.568377042,15.01369413
38:11.5,1.42E+12,2.4809408,-16.64898,-6.5949855,18.07864586,-2.796197222,-10.02603675,-0.722774966,15.18615059
38:11.5,1.42E+12,2.0752845,-11.49325,-11.498339,16.38942955,-2.679431036,-10.36621036,-0.914819604,15.37512196
38:11.6,1.42E+12,0.9804611,-10.1575775,-6.7145867,12.21570134,-2.698992358,-10.57522672,-0.893237478,15.45860879
38:11.6,1.42E+12,-0.19190094,-6.3218036,-7.4654255,9.784406197,-2.841804377,-10.38971149,-0.696214188,15.1679091
38:11.6,1.42E+12,1.2165202,-3.3515306,-9.577534,10.21967887,-2.900230883,-10.07806256,-0.511174988,14.8318706
38:11.6,1.42E+12,3.9344184,-1.2648697,-3.0494585,5.136023817,-2.772968525,-10.01378623,-0.747865778,14.7314804
38:11.6,1.42E+12,1.2963043,-0.19714004,1.0789562,1.698062282,-2.597419579,-9.855065289,-0.905068874,14.4811714
38:11.7,1.42E+12,-0.32811767,-0.90441924,2.7298732,2.894450389,-2.367716252,-9.608650714,-1.09052721,14.11079638
38:11.7,1.42E+12,-0.43828857,-3.6649787,2.0550764,4.224630724,-2.159765704,-9.623389068,-1.230806502,13.90668134
38:11.7,1.42E+12,1.8058448,-14.231206,0.013471985,14.34532959,-1.832665908,-9.747487008,-1.372609622,13.83216807
38:11.7,1.42E+12,-3.3769774,-18.853443,-5.9098606,20.04451899,-1.619419356,-9.818355608,-1.728647234,13.75434404
38:11.8,1.42E+12,-9.940379,-18.545984,-3.831582,21.38797975,-1.662038736,-9.809407248,-1.816975552,13.77121278
38:11.8,1.42E+12,-9.326805,-18.32175,-2.0613635,20.66216431,-1.888589622,-9.792935528,-1.651970682,13.74770621
38:11.8,1.42E+12,-5.714217,-19.363882,2.8864477,20.39469986,-2.09050473,-9.815885768,-1.574369053,13.78035558
38:11.8,1.42E+12,-4.1775126,-17.876276,5.048851,19.03953129,-2.247025238,-9.789959688,-1.415076303,13.76648114
38:11.8,1.42E+12,0.9662407,-15.395036,4.479435,16.06256805,-2.268478628,-9.761722408,-1.171098663,13.71559333
38:11.8,1.42E+12,1.3913567,-9.003327,2.344874,9.407135835,-2.26855946,-9.706786648,-0.909260163,13.58404154
38:11.9,1.42E+12,-1.5858023,-5.375172,3.200794,6.453861262,-2.296443474,-9.619248688,-0.713275709,13.47759481
38:11.9,1.42E+12,-4.4786863,-1.2305909,3.222499,5.653095147,-2.375979074,-9.520235586,-0.479018849,13.38037532
38:12.0,1.42E+12,-6.452033,2.0151095,0.6593788,6.791478229,-2.55055504,-9.41001978,-0.309433501,13.33894338
38:12.0,1.42E+12,-6.697223,5.032385,-0.28321105,8.381998759,-2.76549008,-9.27422816,-0.257710062,13.4012842
38:12.0,1.42E+12,-6.017786,5.125791,-0.123343505,7.905864617,-2.913065198,-9.142367364,-0.2838517,13.51289861
38:12.0,1.42E+12,-3.589835,1.748963,-0.8228389,4.077113042,-2.97690744,-9.092640772,-0.307047464,13.57638067
38:12.0,1.42E+12,3.6881804,-5.553751,-13.140574,14.7350436,-2.87037697,-9.140403452,-0.581950799,13.79877433
38:12.0,1.42E+12,6.2754,-17.67315,-16.016094,24.66244398,-2.72392153,-9.222486792,-0.879253547,14.01886465
38:12.0,1.42E+12,3.9309754,-13.347444,-13.007201,19.04715482,-2.520617302,-9.114169032,-1.012485479,13.98450303
38:12.0,1.42E+12,-0.41882905,2.4945626,12.013418,12.27682664,-2.289168603,-8.69857026,-0.674380567,13.7818988
38:12.1,1.42E+12,-7.174281,-7.163653,7.8781176,12.83950813,-2.241384983,-8.46093042,-0.453392111,13.60775807
38:12.1,1.42E+12,-15.7924595,-17.881964,11.340418,26.41536473,-2.456355953,-8.42840308,-0.341835083,13.71691232
38:12.1,1.42E+12,-7.9183836,-7.0900064,6.1559486,12.28269892,-2.572439555,-8.220629148,-0.340499863,13.58997906
38:12.1,1.42E+12,-8.985964,-5.825885,6.2339363,12.39154739,-2.776462295,-8.071111088,-0.260051159,13.5670297
38:12.1,1.42E+12,-9.330847,-12.336596,10.506053,18.69848807,-2.964668929,-8.160071096,-0.103916835,13.77423894
38:12.2,1.42E+12,-7.0715947,-18.464252,3.6780016,20.11128413,-3.050623189,-8.447578196,-0.091028633,14.06050571
38:12.2,1.42E+12,1.0379416,-18.90838,-10.001152,21.41558307,-2.912885617,-8.840666768,-0.343565467,14.35972686
38:12.2,1.42E+12,4.704118,-17.455502,-0.90052736,18.10066921,-2.672084363,-9.2787458,-0.376613742,14.54949609
38:12.2,1.42E+12,3.812871,-19.193537,-1.486409,19.62496521,-2.455332103,-9.78719348,-0.435483322,14.75197583
38:12.2,1.42E+12,2.578987,-18.226698,-5.941445,19.34333122,-2.300781495,-10.27194246,-0.565029935,14.9801934
38:12.3,1.42E+12,2.4403753,-13.200001,-10.73313,17.18707472,-2.242833996,-10.56459889,-0.751691763,15.28284022
38:12.3,1.42E+12,2.2852976,-11.331137,-8.246651,14.19945434,-2.347274814,-10.55133347,-0.608463603,15.14843512
38:12.3,1.42E+12,-0.010927277,-7.2298155,-6.43407,9.678202743,-2.461762731,-10.32494722,-0.358324783,14.79960605
38:12.3,1.42E+12,-0.43304947,-3.9881566,-8.313113,9.230426461,-2.480255276,-10.15098197,-0.562404403,14.72749507
38:12.3,1.42E+12,3.3699422,-1.7461189,-3.7592826,5.342063956,-2.277181572,-9.966272088,-0.847890735,14.50136132
38:12.4,1.42E+12,2.628085,-1.0945239,-0.87552935,2.978483671,-2.003685312,-9.716384726,-1.117617842,14.12931954
38:12.4,1.42E+12,-0.23785537,-0.76416093,0.16510665,0.817176425,-1.833854479,-9.71748344,-1.328990289,13.8685939
38:12.4,1.42E+12,-1.2085867,-3.1213093,1.0077045,3.495528847,-1.616231033,-9.744358554,-1.467952319,13.64687675
38:12.4,1.42E+12,0.54322034,-12.313095,0.7300319,12.34667337,-1.355257726,-9.690195194,-1.651189281,13.45568979
38:12.4,1.42E+12,-3.084935,-18.555414,-4.773723,19.40640729,-1.240135146,-9.682085074,-1.895412415,13.39974753
38:12.5,1.42E+12,-9.989178,-19.44157,-4.445156,22.30510554,-1.44610085,-9.686881094,-1.701230215,13.36871371
38:12.5,1.42E+12,-8.616383,-19.18755,-1.6003221,21.09419735,-1.71002603,-9.718752814,-1.640375757,13.41532139
38:12.5,1.42E+12,-2.8797116,-19.527641,2.4276516,19.88755878,-1.840515674,-9.728114334,-1.555017263,13.42323261
38:12.5,1.42E+12,-2.4215145,-16.495697,6.9436107,18.06060579,-1.93856478,-9.725048674,-1.284245339,13.42287181
38:12.6,1.42E+12,1.3630655,-12.213402,3.2937505,12.72296853,-1.95280916,-9.739451714,-0.988403549,13.34954259
38:12.6,1.42E+12,0.048948213,-8.205786,3.4155972,8.888398283,-1.971439418,-9.700415884,-0.785799871,13.28299652
38:12.6,1.42E+12,-2.203867,-4.769831,4.5647573,6.96026772,-2.011678739,-9.669376432,-0.545196215,13.22651375
38:12.6,1.42E+12,-4.654122,-0.54875886,3.0368848,5.584322445,-2.129091583,-9.613320997,-0.292907839,13.13380663
38:12.6,1.42E+12,-6.5984287,3.2239957,0.7577243,7.382923249,-2.339748525,-9.523543689,-0.216764183,13.17874462
38:12.6,1.42E+12,-7.186705,5.620512,1.6895366,9.27865388,-2.509408711,-9.407190649,-0.204552575,13.33035645
38:12.7,1.42E+12,-5.955216,5.0244517,0.5956114,7.814375563,-2.621950678,-9.28861323,-0.247237811,13.42875495
38:12.7,1.42E+12,-3.552263,3.059338,-2.7199938,5.42000809,-2.684230166,-9.154126896,-0.342739215,13.4526625
38:12.7,1.42E+12,4.1926312,-7.529792,-14.405892,16.78706789,-2.636494438,-9.020098616,-0.631126494,13.50149726
38:12.7,1.42E+12,6.312523,-17.94184,-15.304474,24.41279365,-2.44270443,-9.001866556,-0.819018762,13.58886276
38:12.7,1.42E+12,4.228856,-8.595276,-1.5453863,9.703103184,-2.15931973,-8.802852396,-0.773294848,13.35516523
38:12.8,1.42E+12,-0.436642,0.33081207,11.125464,11.13894259,-1.98151647,-8.429801154,-0.509558298,13.16470079
38:12.8,1.42E+12,-12.055032,-13.243859,10.034982,20.52862542,-2.10833277,-8.307400694,-0.366587612,13.1673793
38:12.8,1.42E+12,-10.9543705,-14.775924,9.650132,20.77140368,-2.243869928,-8.245393654,-0.274561992,13.20201675
38:12.8,1.42E+12,-8.049661,-5.8487873,5.224885,11.23853987,-2.424187962,-8.05446868,-0.259652992,13.10553619
38:12.8,1.42E+12,-10.479408,-7.7285786,6.6609983,14.62592963,-2.661603256,-8.028973712,-0.173330506,13.20991206
38:12.9,1.42E+12,-10.98341,-15.797848,8.018375,20.84470279,-2.84955541,-8.237427232,-0.076978886,13.49772889
38:12.9,1.42E+12,-6.627468,-19.0666,1.7441729,20.26081703,-2.892531044,-8.594147414,-0.106545408,13.78988333
38:12.9,1.42E+12,2.730023,-18.738333,-8.72835,20.85095305,-2.708889924,-9.009216264,-0.294299984,14.07107283
38:12.9,1.42E+12,5.6588326,-19.221079,-3.6067498,20.3588042,-2.461768812,-9.494285544,-0.360770759,14.31060894
38:12.9,1.42E+12,5.1165104,-19.16794,-2.9436288,20.0562597,-2.239082884,-9.980160164,-0.417176465,14.55361684
38:13.0,1.42E+12,4.373306,-14.320869,-8.393945,17.16599566,-2.079820064,-10.3015568,-0.568598587,14.81539449
38:13.0,1.42E+12,3.9579194,-10.931618,-9.6898,15.13464972,-2.074425284,-10.40911414,-0.499583107,14.82338661
38:13.0,1.42E+12,1.1463162,-9.270971,-7.286398,11.84721655,-2.17700696,-10.24107056,-0.324989187,14.56708206
38:13.0,1.42E+12,0.8674461,-5.406158,-9.347761,10.83326556,-2.238277546,-10.08224484,-0.251800387,14.40280428
38:13.0,1.42E+12,4.148024,-2.690505,-5.1542315,7.142200124,-2.146940485,-10.1859462,-0.595153377,14.30011175
38:13.1,1.42E+12,3.4934354,-1.0801538,0.35850447,3.674145966,-1.933586157,-10.06427621,-0.74554564,14.11680451
38:13.1,1.42E+12,0.80487627,-0.66536635,1.0982661,1.515495502,-1.601639442,-9.719944259,-0.950388678,13.61880712
38:13.1,1.42E+12,-0.3080594,-1.1286529,0.17244141,1.182579385,-1.449432958,-9.600717189,-1.070058822,13.39680473
38:13.1,1.42E+12,-1.0078541,-5.7082295,-0.9976753,5.881752283,-1.28987076,-9.598364079,-1.214691054,13.26660883
38:13.1,1.42E+12,2.3710694,-16.73984,0.24294479,16.90867338,-1.055832432,-9.686428959,-1.419953218,13.23081253
38:13.2,1.42E+12,-5.432054,-19.194735,-6.118826,20.86588349,-1.023041618,-9.701038619,-1.61588977,13.24590452
38:13.2,1.42E+12,-9.200169,-18.084793,-2.446213,20.43738744,-1.22780383,-9.684566879,-1.46479099,13.22634061
38:13.2,1.42E+12,-7.4745564,-18.94266,-0.6237529,20.37357183,-1.471377318,-9.714310039,-1.459255501,13.27179866
38:13.2,1.42E+12,-5.85223,-19.223475,3.0421238,20.32351112,-1.664679338,-9.714908799,-1.368684845,13.28576958
38:13.2,1.42E+12,-0.73347473,-16.717985,5.0307384,17.47390444,-1.730928572,-9.684734539,-1.149241177,13.24838104
38:13.3,1.42E+12,2.2932312,-11.427087,2.0642076,11.83630769,-1.733871454,-9.649276259,-0.893294425,13.1413657
38:13.3,1.42E+12,0.51462984,-7.5869727,2.0287313,7.870371612,-1.76928481,-9.574392973,-0.687786779,13.01478405
38:13.3,1.42E+12,-2.2029688,-3.929329,2.4989035,5.151428601,-1.81312564,-9.508383243,-0.509127309,12.92424857
38:13.3,1.42E+12,-5.307214,0.3198848,2.2496717,5.773202706,-1.910608931,-9.422222415,-0.297871615,12.85510409
38:13.3,1.42E+12,-7.1100645,3.2105236,1.6226257,7.968274163,-2.120209065,-9.323089565,-0.190233449,12.90762829
38:13.4,1.42E+12,-6.4979873,4.0574627,2.320325,8.004420692,-2.302730511,-9.220049833,-0.126316362,13.00814704
38:13.4,1.42E+12,-5.290149,3.3421001,1.2000545,6.371455118,-2.403776383,-9.137924613,-0.105617405,13.11923261
38:13.4,1.42E+12,-0.9342073,0.42751098,-1.4153068,1.748886004,-2.398288795,-9.066948207,-0.154077631,13.08429975
38:13.4,1.42E+12,8.008347,-13.156441,-15.362853,21.75414475,-2.248986262,-9.083815127,-0.475935329,13.27244918
38:13.4,1.42E+12,7.119944,-18.225649,-16.031363,25.29570089,-2.044888682,-9.077219827,-0.701088129,13.39023505
38:13.5,1.42E+12,1.1433225,-0.8279283,5.3919373,5.573655843,-1.822238672,-8.704946993,-0.504346263,13.05560606
38:13.5,1.42E+12,-2.772385,-0.48484176,12.105776,12.4286364,-1.705358712,-8.330892828,-0.230224301,12.88229484
38:13.6,1.42E+12,-15.047309,-15.173197,13.355227,25.1993949,-1.94871066,-8.243803948,-0.011672793,12.98853156
38:13.6,1.42E+12,-9.818682,-14.094541,6.724616,18.44676293,-2.09665401,-8.195780828,-0.016052687,12.9962547
38:13.6,1.42E+12,-7.1380563,-5.259912,3.083887,9.387698388,-2.266676446,-8.056711028,-0.020249957,12.9295493
38:13.6,1.42E+12,-9.745484,-9.796378,7.6616673,15.8001464,-2.46256509,-8.088522868,0.064671445,13.06778426
38:13.6,1.42E+12,-7.948471,-17.315691,8.8653145,21.01440333,-2.57745717,-8.339440068,0.150682589,13.34886698
38:13.6,1.42E+12,-3.1407688,-19.017204,0.044008482,19.27486481,-2.547190106,-8.708808971,0.090825063,13.62267782
38:13.6,1.42E+12,3.7544925,-17.23486,-10.067315,20.30978691,-2.340131682,-9.117986085,-0.125675723,13.8812151
38:13.6,1.42E+12,4.152365,-19.084265,-3.9074743,19.9178227,-2.113350282,-9.612081625,-0.237615941,14.09399847
38:13.7,1.42E+12,4.2409806,-17.82164,-3.9383101,18.73785087,-1.90942635,-10.06900346,-0.328294371,14.31246798
38:13.7,1.42E+12,4.3761497,-12.793745,-10.602003,17.18234748,-1.750858096,-10.38606512,-0.485934555,14.54771477
38:13.7,1.42E+12,3.1395712,-11.433374,-7.987989,14.29639523,-1.771919296,-10.46413676,-0.357576495,14.49790131
38:13.7,1.42E+12,1.0945239,-8.161328,-7.284003,10.99372353,-1.876279278,-10.26852652,-0.197167075,14.22951991
38:13.7,1.42E+12,1.7805474,-4.126619,-8.089627,9.254263796,-1.92524545,-10.17915338,-0.328051889,14.22054312
38:13.8,1.42E+12,3.8217027,-1.393602,-3.8666093,5.612326215,-1.840078556,-10.21364166,-0.627893355,14.1100108
38:13.8,1.42E+12,1.9481987,-0.6716533,-0.028889922,2.060929634,-1.560013942,-9.962197547,-0.829170793,13.74065688
38:13.8,1.42E+12,-0.23680755,-0.16600479,1.6136444,1.639354646,-1.345662683,-9.669999162,-0.989900545,13.3580159
38:13.8,1.42E+12,-1.3579761,-1.1103909,1.3525872,2.215075433,-1.211828985,-9.575231234,-1.067346501,13.17754661
38:13.8,1.42E+12,-0.77433974,-7.4116874,-1.2732522,7.560018738,-1.01772762,-9.56889341,-1.226031511,13.03622839
38:13.9,1.42E+12,3.693719,-17.82134,-1.4908997,18.26106518,-0.72418504,-9.60936325,-1.416217005,12.98455564
38:13.9,1.42E+12,-7.311695,-19.341728,-7.3334002,21.93950966,-0.73786958,-9.61486581,-1.597768467,13.01812949
38:13.9,1.42E+12,-8.584049,-18.288519,-0.9321117,20.224358,-0.96415102,-9.60586953,-1.441843701,13.00559759
38:14.0,1.42E+12,-5.2024317,-19.405346,1.5486795,20.15021482,-1.181376306,-9.60955487,-1.338735115,13.0014258
38:14.0,1.42E+12,-4.42899,-17.920584,2.757416,18.66458214,-1.372286314,-9.58460775,-1.224714219,12.97359225
38:14.0,1.42E+12,1.0912308,-15.262711,3.8645136,15.78212904,-1.437927818,-9.60344459,-0.979545047,12.94591492
38:14.0,1.42E+12,2.6617649,-9.689651,1.6307089,10.18005601,-1.463850908,-9.57860525,-0.753134869,12.84682305
38:14.0,1.42E+12,-0.5439688,-5.52546,2.665956,6.159052822,-1.497656608,-9.50369503,-0.554087789,12.73305977
38:14.0,1.42E+12,-3.4477804,-1.319057,2.2150936,4.305083125,-1.583961138,-9.42195301,-0.322830697,12.60249612
38:14.1,1.42E+12,-6.8945127,1.5998731,1.5881974,7.253707348,-1.804811872,-9.336145448,-0.187982119,12.60472627
38:14.1,1.42E+12,-7.7366614,3.7718563,2.4278014,8.942988829,-2.029413808,-9.239105246,-0.146596181,12.71010313
38:14.1,1.42E+12,-6.1393332,3.8312829,1.5202386,7.394678235,-2.168297998,-9.149172261,-0.138156731,12.82768678
38:14.1,1.42E+12,-4.1983194,2.301015,0.7794292,4.850573749,-2.246103198,-9.080578903,-0.126016975,12.90104667
38:14.1,1.42E+12,3.6738102,-3.4307158,-13.20988,14.13391743,-2.152469912,-9.035028629,-0.370261069,13.06608997
38:14.1,1.42E+12,8.046967,-17.054035,-16.434324,25.01361215,-2.03895196,-9.041312529,-0.703806445,13.22818875
38:14.2,1.42E+12,5.8110657,-10.493179,-11.927796,16.91589807,-1.814089566,-8.867281409,-0.819985845,13.14918904
38:14.2,1.42E+12,-1.2725039,2.3990612,10.992242,11.32272692,-1.655536264,-8.457604325,-0.551216745,12.96689583
38:14.2,1.42E+12,-9.876013,-11.9779415,12.0414095,19.64694017,-1.703565396,-8.318309955,-0.297913497,12.95236319
38:14.2,1.42E+12,-12.226725,-15.374379,10.177785,22.12355399,-1.831055296,-8.241328035,-0.155200273,12.98836405
38:14.2,1.42E+12,-8.018226,-6.415958,4.1489224,11.07564997,-1.976750321,-8.035287495,-0.172836593,12.86039896
38:14.3,1.42E+12,-9.401949,-9.135503,8.854088,15.81925834,-2.210653925,-7.989455815,-0.037038985,12.94005797
38:14.3,1.42E+12,-8.889863,-17.06661,9.303753,21.37425229,-2.398743782,-8.179048561,0.108461449,13.21013559
38:14.3,1.42E+12,-3.7425175,-19.239042,-2.5186625,19.76084095,-2.429534756,-8.485242821,0.008110129,13.50232383
38:14.3,1.42E+12,3.3346157,-17.371675,-10.928025,20.79222173,-2.256698162,-8.839074017,-0.255443805,13.80270422
38:14.3,1.42E+12,4.450246,-18.685194,-3.0115874,19.44250043,-2.025491952,-9.276988369,-0.348128067,14.03218874
38:14.4,1.42E+12,4.594396,-17.894388,-2.2008734,18.60541427,-1.803644286,-9.716025383,-0.438552035,14.24420861
38:14.4,1.42E+12,4.6993275,-12.708872,-9.526938,16.56386592,-1.603854756,-10.03704483,-0.653091885,14.44805683
38:14.4,1.42E+12,3.607049,-11.07023,-8.110884,14.18968759,-1.51302963,-10.26699965,-0.787003429,14.69687286
38:14.4,1.42E+12,1.7315991,-8.69452,-6.5123577,11.00017801,-1.638564588,-10.17776123,-0.609993523,14.48179353
38:14.5,1.42E+12,1.4452446,-4.5614643,-7.8592567,9.201282758,-1.752058576,-9.904477531,-0.446551397,14.15990516
38:14.5,1.42E+12,3.6973114,-2.1897962,-5.603597,7.061559199,-1.700978798,-9.931714889,-0.666462083,14.18966323
38:14.5,1.42E+12,2.423161,-1.2858261,-0.12528946,2.746043598,-1.597067878,-9.947734576,-0.911083392,13.99601137
38:14.6,1.42E+12,0.05478607,-0.75368273,0.95875627,1.22075909,-1.295025976,-9.65934429,-1.159012807,13.51643866
38:14.6,1.42E+12,-0.9303154,-0.4391867,0.022453308,1.029016935,-1.117258644,-9.386237204,-1.29305606,13.16808374
38:14.6,1.42E+12,-0.9023236,-5.2533255,0.368833,5.343000512,-0.99254399,-9.386105474,-1.34735714,13.08718978
38:14.6,1.42E+12,3.7185671,-16.156801,0.015717316,16.57921008,-0.723262968,-9.513313934,-1.50027614,13.10277105
38:14.6,1.42E+12,-2.3087988,-19.115398,-6.340066,20.2712957,-0.610469524,-9.549308074,-1.80438375,13.0879089
38:14.6,1.42E+12,-8.561296,-19.517763,-3.4732275,21.59403091,-0.718880068,-9.559319254,-1.87472847,13.13429222
38:14.6,1.42E+12,-7.0971913,-19.563568,-0.24608825,20.81258938,-0.935913744,-9.605893414,-1.678303935,13.14434827
38:14.6,1.42E+12,-3.0710137,-19.162102,3.2448025,19.67602657,-1.080381318,-9.607450154,-1.535258399,13.13951235
38:14.7,1.42E+12,-1.1762539,-17.325123,5.897586,18.33916522,-1.188726008,-9.597519814,-1.338540477,13.13153864
38:14.7,1.42E+12,1.5760726,-12.101884,2.107318,12.3846837,-1.24472755,-9.583682594,-1.084354057,13.03558536
38:14.7,1.42E+12,0.2642006,-8.402777,2.4301963,8.751132345,-1.302234962,-9.523070654,-0.875990351,12.9246801
38:14.7,1.42E+12,-2.20252,-4.0116577,2.8605514,5.396966385,-1.36817584,-9.440077248,-0.673099263,12.81274496
38:14.7,1.42E+12,-4.5902047,0.6638695,1.9791843,5.042605715,-1.495590882,-9.344267478,-0.471723037,12.7285118
38:14.8,1.42E+12,-6.779552,3.5009198,0.41703278,7.641510394,-1.707615976,-9.246377042,-0.386050195,12.76909548
38:14.8,1.42E+12,-7.1248837,4.8277607,1.6429834,8.761885389,-1.889077624,-9.136388762,-0.352612729,12.9031146
38:14.8,1.42E+12,-6.22735,3.2471974,0.4788542,7.039423295,-2.008888473,-9.068124719,-0.375308533,13.01111597
38:14.8,1.42E+12,-0.34323624,-0.5113367,-2.9731174,3.036231778,-1.988593676,-9.056143635,-0.461822625,13.0275391
38:14.9,1.42E+12,11.737392,-15.024107,-17.276474,25.72871384,-1.738359041,-9.208392027,-0.781887061,13.390913
38:14.9,1.42E+12,5.142556,-18.37444,-15.756983,24.74567519,-1.709382301,-9.219454027,-1.067208727,13.5206052
38:14.9,1.42E+12,2.5512946,-2.4990532,-4.012556,5.371682854,-1.512122509,-8.882600531,-1.000791843,13.18924866
38:14.9,1.42E+12,-2.0924985,3.643124,10.377919,11.19607544,-1.382291499,-8.443967671,-0.774591229,13.00868301
38:14.9,1.42E+12,-10.576856,-10.090218,12.0237465,18.92756884,-1.489779985,-8.257665111,-0.565089889,12.98423009
38:14.9,1.42E+12,-15.0133295,-18.290165,9.640852,25.55144273,-1.701466775,-8.265056731,-0.427421169,13.1219673
38:15.0,1.42E+12,-6.081703,-9.77647,0.22453308,11.51594078,-1.844925451,-8.155331911,-0.500220779,13.03664354
38:15.0,1.42E+12,-5.507048,-7.3268137,4.2824445,10.11677357,-2.008301709,-8.108075165,-0.447186067,13.03537789
38:15.0,1.42E+12,-5.15977,-13.227243,8.1722555,16.38197008,-2.100617733,-8.262110825,-0.337060077,13.23983624
38:15.0,1.42E+12,-4.161646,-18.582058,3.275788,19.32208488,-2.114895045,-8.607370845,-0.315846189,13.54017627
38:15.0,1.42E+12,0.91504717,-16.673826,-4.2382865,17.22837361,-1.958703848,-8.972844827,-0.432375867,13.7396696
38:15.1,1.42E+12,3.797603,-17.082327,-1.8474582,17.59661292,-1.72801856,-9.389928493,-0.517881059,13.91274208
38:15.1,1.42E+12,2.7301726,-19.17348,-1.9252963,19.46234682,-1.550628444,-9.850023751,-0.586791757,14.15409545
38:15.1,1.42E+12,2.1781206,-17.684076,-5.5477633,18.66141557,-1.423099644,-10.24972557,-0.713335607,14.43031229
38:15.1,1.42E+12,2.066303,-13.260624,-10.465187,17.01863378,-1.455249788,-10.44632373,-0.658441747,14.48800661
38:15.2,1.42E+12,2.7279272,-10.54093,-9.19942,14.25419659,-1.561630584,-10.31606163,-0.513743667,14.2728183
38:15.2,1.42E+12,1.9577788,-7.4724607,-6.6232767,10.17538014,-1.638696322,-10.25564727,-0.407653281,14.13800794
38:15.2,1.42E+12,1.2570859,-3.3211436,-6.4199996,7.33666509,-1.588104526,-10.37005136,-0.755898113,14.05828671
38:15.2,1.42E+12,4.3334885,-1.4585669,-6.029761,7.567334914,-1.303914496,-10.15966387,-1.117321523,13.8166946
38:15.2,1.42E+12,3.5889368,-1.7031583,-0.459245,3.999015069,-0.98760126,-9.886239459,-1.330062123,13.45420382
38:15.2,1.42E+12,0.7710466,-1.4024336,2.5114775,2.978061802,-0.811815808,-9.785968971,-1.362811021,13.29225206
38:15.3,1.42E+12,-0.29758117,-1.8106347,2.4363337,3.050028601,-0.629728451,-9.639471605,-1.491166107,13.03686747
38:15.3,1.42E+12,0.8970845,-8.848549,-0.3742218,8.901776337,-0.433989501,-9.475110385,-1.684725603,12.78741795
38:15.3,1.42E+12,2.57749,-17.856218,-2.3555017,18.19440475,-0.307589351,-9.447453905,-1.681462387,12.75608922
38:15.3,1.42E+12,-4.960834,-19.34652,-5.5471644,20.7284525,-0.473498345,-9.486950805,-1.573845175,12.75481384
38:15.3,1.42E+12,-9.042846,-19.53423,-2.9162357,21.72242243,-0.743360185,-9.503931525,-1.571938141,12.80041228
38:15.4,1.42E+12,-6.0751166,-19.41328,-2.2185366,20.46226739,-0.956750437,-9.534309365,-1.572291405,12.83754934
38:15.4,1.42E+12,-1.4605129,-19.554886,4.129313,20.03940843,-1.079947245,-9.671229645,-1.299166385,12.90706019
38:15.4,1.42E+12,-0.44277924,-17.906513,4.490961,18.46640171,-1.16094381,-9.807955305,-1.047129485,12.99259447
38:15.4,1.42E+12,2.4560926,-12.842244,2.7680438,13.36479286,-1.14645394,-9.890909785,-0.861521455,13.03988677
38:15.4,1.42E+12,0.25656646,-7.9683795,2.3385868,8.30842262,-1.170227503,-9.959048089,-0.657564585,13.02202957
38:15.5,1.42E+12,-2.1152513,-4.152515,3.1045442,5.599630664,-1.286478757,-9.998302465,-0.483401761,12.992791
38:15.5,1.42E+12,-5.3024235,0.10627899,2.0501368,5.685952083,-1.440990447,-9.970460363,-0.439893236,13.05158917
38:15.5,1.42E+12,-7.87198,2.1002824,-0.18636246,8.149477667,-1.599525768,-9.91338106,-0.462795611,13.19016354
38:15.5,1.42E+12,-8.443043,4.182752,0.7165599,9.449542184,-1.74978032,-9.820942286,-0.448913479,13.35857404
38:15.5,1.42E+12,-6.84766,3.9990838,1.0003697,7.992737845,-1.868687048,-9.6358941,-0.436282745,13.41156879
38:15.6,1.42E+12,-3.5036142,1.4108162,1.2403207,3.975438372,-2.013130674,-9.284541756,-0.411790677,13.15949335
38:15.6,1.42E+12,8.553812,-9.341624,-15.54697,20.05347638,-1.795878458,-9.089066276,-0.595928757,13.15513697
38:15.6,1.42E+12,8.311017,-18.188377,-18.174456,27.02222997,-1.458432198,-9.062478556,-0.889953327,13.26370095
38:15.6,1.42E+12,4.79917,-6.8608327,-5.118157,9.813184453,-1.220504972,-8.80842385,-0.987394702,13.04371285
38:15.6,1.42E+12,-1.7042061,-1.6992663,11.230247,11.48521972,-1.19316882,-8.459167136,-0.827685812,12.87989671
38:15.7,1.42E+12,-11.925101,-15.786023,8.710686,21.61672053,-1.408145762,-8.428385136,-0.771423812,12.94544782
38:15.7,1.42E+12,-9.963431,-11.962823,10.927726,19.0208908,-1.638935834,-8.425603916,-0.595015652,13.07817196
38:15.7,1.42E+12,-9.433682,-4.0065684,6.7653313,12.28074322,-1.832893486,-8.337679744,-0.508312952,13.14876418
38:15.7,1.42E+12,-10.543026,-9.17517,9.873019,17.11185688,-1.999703606,-8.44094999,-0.3680636,13.38306199
38:15.7,1.42E+12,-8.379126,-18.078056,9.134604,21.91955409,-2.075482032,-8.8157885,-0.224955206,13.72060096
38:15.8,1.42E+12,-2.4240592,-19.376757,-7.0537815,20.7627216,-1.988372176,-9.273342036,-0.374371492,13.98302518
38:15.8,1.42E+12,3.5865417,-17.122293,-7.3438783,18.97284237,-1.774143668,-9.71234311,-0.554108726,14.18724432
38:15.8,1.42E+12,4.6277766,-18.746716,-0.79140425,19.32568234,-1.557041136,-10.15222138,-0.579513895,14.4329695
38:15.8,1.42E+12,4.722829,-18.913021,-2.4459138,19.64662748,-1.455719832,-10.52025506,-0.568969823,14.76517742
38:15.8,1.42E+12,4.7360015,-14.8516655,-9.224867,18.1135267,-1.595747642,-10.51680623,-0.407937683,14.61287367
38:15.9,1.42E+12,5.160968,-11.148367,-9.1621475,15.32535886,-1.595379402,-10.37228477,-0.276040973,14.42446735
38:15.9,1.42E+12,2.5511448,-9.327254,-6.5878005,11.70064624,-1.595382398,-10.50884879,-0.327545863,14.55104661
38:15.9,1.42E+12,0.7927515,-5.1943483,-7.0370164,8.782329362,-1.537677398,-10.68559824,-0.675844571,14.50277169
38:15.9,1.42E+12,2.9877868,-1.7477655,-5.4947734,6.494158061,-1.266384542,-10.51874919,-1.026214969,14.25410348
38:15.9,1.42E+12,3.855233,-0.34787658,-1.4672488,4.139644748,-0.889013292,-10.15990342,-1.248376985,13.82586752
38:16.0,1.42E+12,1.4361136,-0.6021977,0.626597,1.678597076,-0.73865696,-9.976417972,-1.240335706,13.62912064
38:16.0,1.42E+12,-0.82523394,-0.78152484,-0.3023712,1.176103938,-0.645020678,-9.845512195,-1.33203202,13.45030725
38:16.0,1.42E+12,-1.4163547,-4.08261,0.16914825,4.324624397,-0.570152372,-9.662619535,-1.492094165,13.20916034
38:16.0,1.42E+12,2.4554937,-14.575191,0.5321434,14.79015952,-0.437809578,-9.582482195,-1.546967057,13.11852183
38:16.0,1.42E+12,1.234932,-18.900297,-5.8713903,19.82976318,-0.431411882,-9.627011615,-1.579629133,13.17054962
38:16.1,1.42E+12,-6.2123814,-19.488573,-4.737199,20.99617143,-0.63161157,-9.675136535,-1.637423949,13.23854079
38:16.1,1.42E+12,-6.3743443,-19.568506,-1.3513898,20.62486234,-0.813701908,-9.683037055,-1.625945819,13.2617911
38:16.1,1.42E+12,-1.4629079,-19.579433,4.165987,20.07111715,-0.886522478,-9.720944195,-1.431670813,13.28998513
38:16.2,1.42E+12,-0.24429199,-17.56687,4.328399,18.09391163,-0.932734378,-9.807069115,-1.135799093,13.31149069
38:16.2,1.42E+12,2.3650818,-12.2786665,2.968477,12.85189164,-0.939991286,-9.841823845,-0.892441153,13.28344459
38:16.2,1.42E+12,0.68961596,-8.946445,3.9862106,9.818570327,-0.965354542,-9.871303531,-0.680251407,13.2763084
38:16.2,1.42E+12,-2.1427941,-4.5860133,4.072282,6.496658005,-1.033352142,-9.896600925,-0.470405775,13.25950825
38:16.2,1.42E+12,-5.0118775,0.5216652,2.339934,5.555748535,-1.220259462,-9.856996283,-0.303011875,13.21927653
38:16.2,1.42E+12,-7.1934414,3.2635136,-0.4511618,7.911995144,-1.435907026,-9.757662845,-0.302850211,13.29753613
38:16.2,1.42E+12,-7.734416,4.508624,0.061821442,8.952804205,-1.606016278,-9.639441693,-0.351843332,13.41703098
38:16.3,1.42E+12,-6.981931,3.346441,0.07589218,7.742853962,-1.739703275,-9.536300179,-0.399052163,13.51088748
38:16.3,1.42E+12,-3.077151,-0.24069947,-2.681374,4.088589126,-1.819187985,-9.364143188,-0.445195207,13.41462374
38:16.3,1.42E+12,6.2161236,-10.617421,-15.593373,19.86260564,-1.746415313,-9.219367248,-0.709952633,13.44798776
38:16.3,1.42E+12,5.531597,-18.301691,-14.679224,24.10456546,-1.536566693,-9.198470668,-0.892593825,13.51551002
38:16.3,1.42E+12,3.3611104,-5.6253023,-3.2621663,7.320028556,-1.288487565,-8.920292114,-0.899512437,13.22746214
38:16.4,1.42E+12,-0.48020142,3.9796243,11.3488,12.0359156,-1.176589261,-8.452434028,-0.628165705,13.0589351
38:16.4,1.42E+12,-6.839128,-8.880733,8.668922,14.17008465,-1.284161563,-8.238950968,-0.537373525,12.94154863
38:16.4,1.42E+12,-14.16205,-18.125658,10.444081,25.26226368,-1.558546979,-8.243333868,-0.418311125,13.07746587
38:16.5,1.42E+12,-6.986871,-10.379715,4.8370414,13.41461216,-1.747406251,-8.194083288,-0.376931173,13.07846225
38:16.5,1.42E+12,-7.731722,-7.912396,7.6007442,13.42225197,-1.90717202,-8.192963618,-0.271688025,13.18073884
38:16.5,1.42E+12,-7.080426,-14.2976675,9.311537,18.47323603,-2.006475514,-8.395866668,-0.147548169,13.43821095
38:16.5,1.42E+12,-4.1824527,-18.862425,2.9077034,19.53813519,-1.984076098,-8.775240748,-0.130396837,13.71525461
38:16.5,1.42E+12,2.4712112,-18.064135,-9.841285,20.71885008,-1.777212274,-9.178529096,-0.323495288,13.96664206
38:16.5,1.42E+12,4.367468,-19.278261,-7.3928266,21.10402827,-1.521002054,-9.647749356,-0.485683018,14.19973178
38:16.5,1.42E+12,4.3605824,-18.457666,-2.971321,19.19710555,-1.296837206,-10.09688435,-0.565116832,14.42381913
38:16.6,1.42E+12,3.671565,-12.285702,-6.6156425,14.4286378,-1.153333622,-10.37081472,-0.722236096,14.63288312
38:16.6,1.42E+12,2.3082001,-9.908944,-7.601642,12.70039054,-1.27824586,-10.38216112,-0.563329536,14.4858214
38:16.6,1.42E+12,1.8089882,-7.413933,-7.3389387,10.58767501,-1.408286436,-10.16667224,-0.34661919,14.1571303
38:16.6,1.42E+12,1.6564554,-4.731211,-7.3721695,8.914992157,-1.471140728,-10.1240798,-0.39169944,14.13916646
38:16.6,1.42E+12,4.061055,-2.0814216,-6.507268,7.947894087,-1.355835506,-10.13172291,-0.74644974,14.06841995
38:16.7,1.42E+12,3.1798375,-0.38709503,-0.5321434,3.247211987,-1.053736736,-9.823744348,-0.931306328,13.70102978
38:16.7,1.42E+12,0.12828323,-0.18636246,1.7134868,1.728358923,-0.851902451,-9.588215138,-1.115591112,13.35517914
38:16.7,1.42E+12,-0.88436097,-0.49741563,0.31734008,1.063118695,-0.680916031,-9.518032082,-1.244550936,13.13082665
38:16.7,1.42E+12,-0.7695497,-4.1194334,-1.2424164,4.370988079,-0.485446505,-9.41691735,-1.466859644,12.87600927
38:16.7,1.42E+12,3.0400283,-13.997841,0.7818242,14.34547224,-0.257063419,-9.33531305,-1.63391524,12.72452763
38:16.8,1.42E+12,3.436404,-18.82171,-3.33731,19.4217218,-0.139854155,-9.32421211,-1.55958581,12.69770764
38:16.8,1.42E+12,-5.7962465,-19.477797,-4.052822,20.72212382,-0.327509919,-9.37132219,-1.493764684,12.73269327
38:16.8,1.42E+12,-8.009694,-19.537073,-1.3117223,21.15592198,-0.580259331,-9.38712933,-1.504171045,12.76929806
38:16.8,1.42E+12,-2.967579,-17.868492,0.4646338,18.1192002,-0.734067491,-9.36623875,-1.445960093,12.73874951
38:16.8,1.42E+12,-0.005388794,-18.635498,3.441643,18.95063907,-0.828895296,-9.4419154,-1.192629893,12.75549176
38:16.9,1.42E+12,1.0385404,-14.7388,4.455335,15.43245935,-0.911343848,-9.51372406,-0.920280243,12.75763377
38:16.9,1.42E+12,1.2094848,-10.4252205,1.8961071,10.66505031,-0.938177048,-9.53568339,-0.750602091,12.73692185
38:16.9,1.42E+12,-1.6979191,-6.262078,1.986519,6.785485088,-0.98799046,-9.557037984,-0.570131383,12.69698497
38:16.9,1.42E+12,-4.0460863,-1.5380516,2.5538392,5.025784688,-1.128667922,-9.552843706,-0.409159131,12.6676175
38:16.9,1.42E+12,-6.6324077,1.9815793,0.54097503,6.943208365,-1.338420736,-9.506254589,-0.368994654,12.72368877
38:17.0,1.42E+12,-7.639214,3.4696348,-0.71191955,8.420379186,-1.519927288,-9.424817939,-0.395764985,12.85852441
38:17.0,1.42E+12,-7.3176827,3.0900242,-0.3225792,7.949892263,-1.649776264,-9.347386958,-0.396169145,12.99400018
38:17.0,1.42E+12,-4.1867933,-0.101638645,0.74260575,4.253355364,-1.705185036,-9.267767531,-0.384699995,12.9925748
38:17.0,1.42E+12,5.2159033,-6.0739193,-11.459869,13.97951145,-1.649976844,-9.097742097,-0.624540243,12.97636184
38:17.0,1.42E+12,7.7320213,-17.504599,-15.349081,24.53139676,-1.520035058,-9.069828137,-0.814094057,13.07039451
38:17.1,1.42E+12,4.6711864,-10.903326,-12.576397,17.28780674,-1.302363702,-8.898123197,-0.970878017,12.99622722
38:17.1,1.42E+12,-0.7430548,-1.8541942,9.24762,9.460900709,-1.189737912,-8.543836961,-0.758897821,12.77294798
38:17.1,1.42E+12,-7.10273,-13.0368395,6.443201,16.18402906,-1.302534354,-8.412985091,-0.713353541,12.69520622
38:17.1,1.42E+12,-10.581944,-16.127314,10.837314,22.12498973,-1.509287394,-8.384193971,-0.583175241,12.77582778
38:17.1,1.42E+12,-8.206684,-4.7081594,6.511609,11.48553347,-1.72072271,-8.232783829,-0.512312601,12.74850062
38:17.2,1.42E+12,-10.036928,-5.134323,8.159682,13.91695393,-1.935253589,-8.156541389,-0.428843173,12.83046829
38:17.2,1.42E+12,-8.585996,-15.304923,12.602143,21.60495322,-2.064117627,-8.370919583,-0.258245953,13.1326342
38:17.2,1.42E+12,-4.8210244,-18.99954,4.2537045,20.05788619,-2.060300565,-8.761343687,-0.219970543,13.42267695
38:17.2,1.42E+12,2.903063,-18.11967,-12.039614,21.94772245,-1.858370477,-9.189007359,-0.451739587,13.7033915
38:17.2,1.42E+12,5.696105,-17.678837,-2.8940818,18.79794136,-1.589760057,-9.632756579,-0.510857652,13.90029424
38:17.3,1.42E+12,4.773723,-18.988163,-1.7998571,19.6615933,-1.354646977,-10.07944866,-0.548372638,14.13866903
38:17.3,1.42E+12,3.9790256,-16.86977,-4.683311,17.9542526,-1.213523445,-10.41203007,-0.588411378,14.4159823
38:17.3,1.42E+12,3.615282,-12.871135,-10.263257,16.85440074,-1.265540277,-10.45710435,-0.481809058,14.3558182
38:17.3,1.42E+12,3.4855018,-10.753488,-7.5300913,13.58265445,-1.306462181,-10.30614029,-0.338826404,14.14537998
38:17.4,1.42E+12,1.3817766,-6.819818,-6.807394,9.734466457,-1.346048857,-10.3300306,-0.409730958,14.19366874
38:17.4,1.42E+12,1.1735595,-3.8799317,-7.7683954,8.762367202,-1.312973639,-10.48722172,-0.792074866,14.12819777
38:17.4,1.42E+12,4.1848474,-1.6456778,-4.418811,6.304529628,-1.092494131,-10.34252062,-1.053829526,13.97088667
38:17.5,1.42E+12,2.8120522,-0.72015244,0.1911525,2.909088584,-0.753012087,-9.994410508,-1.258888096,13.52382317
38:17.5,1.42E+12,1.0565029,-0.08786728,2.429448,2.650686066,-0.592144609,-9.788573554,-1.307039964,13.30854464
38:17.5,1.42E+12,-0.33096176,-1.035846,-0.9168434,1.422362275,-0.444129404,-9.651042554,-1.477391716,13.06854685
38:17.5,1.42E+12,0.001646576,-6.0213785,-1.8513501,6.299563393,-0.302487952,-9.485516774,-1.700649458,12.8250734
38:17.5,1.42E+12,4.2406816,-16.545544,1.5617024,17.15159821,-0.134025266,-9.439179154,-1.727569478,12.77734266
38:17.5,1.42E+12,0.17289047,-19.16824,-4.7740226,19.75455916,-0.179991681,-9.461261254,-1.62622423,12.75805684
38:17.5,1.42E+12,-7.2154455,-19.524948,-3.8061352,21.16064539,-0.411649951,-9.466194994,-1.554490402,12.75918918
38:17.6,1.42E+12,-7.225774,-19.28799,-1.6212785,20.66075778,-0.643377079,-9.482801474,-1.527489552,12.78846223
38:17.6,1.42E+12,-1.5326629,-19.136356,5.6971526,20.02515229,-0.747461637,-9.619814554,-1.28123365,12.90039252
38:17.6,1.42E+12,0.24698639,-18.284777,5.3359537,19.04905441,-0.788685911,-9.787331214,-1.022481736,13.02736579
38:17.6,1.42E+12,2.965184,-12.526701,1.9470012,13.0192691,-0.765561995,-9.889586574,-0.836762938,13.07599768
38:17.6,1.42E+12,1.0946736,-9.291478,1.9377205,9.554299265,-0.776797631,-9.980791914,-0.650565138,13.08878382
38:17.6,1.42E+12,-1.5715818,-4.855453,2.4547453,5.66313232,-0.889450367,-10.03627254,-0.471324872,13.04308858
38:17.7,1.42E+12,-4.4357257,-0.74410266,1.783092,4.838260879,-1.041761631,-10.04341269,-0.425020164,13.07490956
38:17.7,1.42E+12,-7.7567196,1.936523,-0.99992067,8.057087664,-1.199461688,-10.00095499,-0.479288313,13.20148413
38:17.7,1.42E+12,-8.870704,4.4954515,-1.1644286,10.0127103,-1.359188548,-9.901097643,-0.508923687,13.38047597
38:17.7,1.42E+12,-7.6914554,4.753814,0.91010743,9.087658073,-1.497626662,-9.723632695,-0.46587321,13.47480937
38:17.8,1.42E+12,-3.2552805,1.6810043,1.4443464,3.938116696,-1.623532838,-9.410055789,-0.452622766,13.26666226
38:17.8,1.42E+12,7.297475,-6.9989953,-11.687246,15.45415141,-1.546311418,-9.173601495,-0.619621486,13.18731085
38:17.8,1.42E+12,8.664133,-17.80233,-17.540674,26.45118898,-1.257103828,-9.140092155,-0.889378526,13.30189215
38:17.8,1.42E+12,5.2426977,-9.548943,-6.8576894,12.87229954,-0.992055994,-8.940329555,-1.000297868,13.1362197
38:17.8,1.42E+12,-2.0112176,-2.9524603,11.028915,11.59305758,-0.972928766,-8.642008921,-0.789012244,13.00569685
38:17.8,1.42E+12,-11.068433,-15.80159,8.143815,20.94092114,-1.19418965,-8.585330761,-0.694968804,13.04550249
38:17.9,1.42E+12,-10.742111,-11.0829525,9.586065,18.16913391,-1.429802678,-8.512213811,-0.592354204,13.10023598
38:17.9,1.42E+12,-10.277778,-3.8106258,7.2389464,13.13605476,-1.659547934,-8.379921917,-0.485497418,13.14965607
38:17.9,1.42E+12,-9.582623,-12.864548,11.707155,19.85902155,-1.817242012,-8.511971317,-0.291084698,13.4111268
38:17.9,1.42E+12,-6.7624874,-18.640587,11.43517,22.89029996,-1.871570034,-8.854022025,-0.113458082,13.76841711
38:17.9,1.42E+12,-0.55010605,-19.393072,-7.908953,20.95102374,-1.749924001,-9.281515051,-0.282456643,14.04857341
38:18.0,1.42E+12,5.0807347,-16.579971,-7.891739,19.05226621,-1.495525027,-9.682507167,-0.426053032,14.26121115
38:18.0,1.42E+12,4.559668,-18.202896,-1.7640816,18.84802321,-1.257978013,-10.10836557,-0.45488308,14.47917377
38:18.0,1.42E+12,4.412674,-17.928368,-3.7883222,18.8480624,-1.085988667,-10.46490016,-0.545501639,14.77106791
38:18.0,1.42E+12,3.2024405,-13.487253,-10.348281,17.29880164,-1.126257923,-10.61316683,-0.523269879,14.83745372
38:18.0,1.42E+12,3.0514045,-10.463092,-9.361084,14.36722859,-1.219870259,-10.47233669,-0.403509939,14.63417035
38:18.1,1.42E+12,2.458188,-8.287516,-6.4878087,10.80820389,-1.264130227,-10.42002049,-0.281738173,14.5045783
38:18.2,1.42E+12,1.40902,-4.6705875,-7.9823008,9.355044148,-1.221088731,-10.47634836,-0.626336589,14.50246117
38:18.2,1.42E+12,3.5863922,-2.0939956,-7.405101,8.490144133,-1.007306287,-10.25749148,-0.903302629,14.34858347
38:18.2,1.42E+12,3.3320708,0.10927276,0.21106109,3.340536355,-0.729025991,-9.932759744,-1.115827687,13.9728944
38:18.2,1.42E+12,0.5761519,0.8376581,1.0605446,1.46914157,-0.553369273,-9.821843394,-1.224848975,13.77256656
38:18.2,1.42E+12,-0.03861969,-0.6456075,0.48648834,0.809303052,-0.353403107,-9.732069084,-1.378312848,13.51041354
38:18.2,1.42E+12,0.11885285,-5.2907476,0.71341646,5.33995311,-0.17930613,-9.531785576,-1.616087379,13.18511354
38:18.2,1.42E+12,4.771328,-15.92703,1.117576,16.66387805,0.012540918,-9.470335376,-1.678809949,13.11723338
38:18.2,1.42E+12,-2.170187,-19.084114,-6.5339127,20.28805397,-0.088924082,-9.489624256,-1.568695923,13.08404001
38:18.2,1.42E+12,-8.355774,-19.173328,-4.1522155,21.3231414,-0.369961662,-9.519514076,-1.593858597,13.13454401
38:18.3,1.42E+12,-7.6875634,-19.26479,-1.7705182,20.81743259,-0.61918739,-9.525046616,-1.593271819,13.1576608
38:18.3,1.42E+12,-1.8428178,-19.53812,2.6292825,19.80018275,-0.735624258,-9.578413616,-1.447019949,13.1945794
38:18.3,1.42E+12,-0.42541534,-19.065853,3.316653,19.35685708,-0.816438205,-9.702307976,-1.175421749,13.24462853
38:18.3,1.42E+12,3.740272,-14.7600565,4.352948,15.83657346,-0.811342801,-9.782439346,-0.937760963,13.28970691
38:18.3,1.42E+12,1.9459534,-9.547895,1.7646804,9.902682994,-0.800059265,-9.837000886,-0.766319475,13.29307124
38:18.4,1.42E+12,-1.2722044,-5.381609,3.0883777,6.333900558,-0.848974543,-9.867034432,-0.549184013,13.2445019
38:18.4,1.42E+12,-3.9332209,-0.42930725,3.1346314,5.047815902,-1.011335909,-9.842707021,-0.398115165,13.21936763
38:18.4,1.42E+12,-6.4988856,2.8499236,1.7092955,7.299265009,-1.197554665,-9.771305501,-0.367752305,13.30717116
38:18.5,1.42E+12,-7.5193133,5.760321,1.6916323,9.622005527,-1.369070989,-9.654341735,-0.382508619,13.44659755
38:18.5,1.42E+12,-6.913673,5.272935,1.4627582,8.81716391,-1.500725214,-9.528166115,-0.334916587,13.59449358
38:18.5,1.42E+12,-3.5170863,2.409689,-0.68302965,4.317757129,-1.571099871,-9.359544765,-0.311550178,13.55485745
38:18.5,1.42E+12,8.038284,-7.4717126,-14.044993,17.82420622,-1.495147823,-9.178068137,-0.623684086,13.56830962
38:18.5,1.42E+12,7.3378906,-17.933907,-17.372124,26.02422623,-1.351847821,-9.153381477,-0.875646114,13.69370296
38:18.5,1.42E+12,4.3878255,-10.193952,-8.5380945,14.00245435,-1.119782401,-8.966761557,-0.9702853,13.55053914
38:18.5,1.42E+12,-2.0902534,0.4314029,12.7184515,12.89628925,-1.017071989,-8.572373699,-0.6834907,13.39524977
38:18.6,1.42E+12,-9.061407,-13.221406,7.043902,17.50803327,-1.167646871,-8.454074699,-0.656555712,13.34490738
38:18.6,1.42E+12,-12.402309,-15.513888,12.346176,23.38645016,-1.420632779,-8.398656919,-0.516351266,13.4316553
38:18.6,1.42E+12,-10.644963,-4.7277684,7.720495,13.97401425,-1.692835719,-8.242678267,-0.40088139,13.4507502
38:18.6,1.42E+12,-9.643846,-9.723929,10.414293,17.20511725,-1.907606111,-8.251327287,-0.23134994,13.60376656
38:18.6,1.42E+12,-7.457193,-17.896484,12.858411,23.2644063,-2.025318335,-8.512147907,-0.023276626,13.95579204
38:18.7,1.42E+12,-2.036066,-19.352057,-0.29383895,19.4610898,-1.977325141,-8.884306994,-0.064815245,14.24824862
38:18.7,1.42E+12,6.010751,-18.503922,-12.683575,23.2249291,-1.701975729,-9.293115894,-0.298488332,14.55160545
38:18.7,1.42E+12,5.7136183,-19.212996,-3.4055681,20.33181112,-1.410289283,-9.767284844,-0.343311122,14.75798747
38:18.8,1.42E+12,5.1298323,-17.700392,-3.0957124,18.68696047,-1.153863529,-10.21636896,-0.423427518,14.94997351
38:18.8,1.42E+12,4.4406657,-12.602443,-8.390951,15.7781222,-0.999944605,-10.50203791,-0.620133466,15.18677362
38:18.8,1.42E+12,3.1437626,-10.731933,-8.772358,14.21308883,-1.083018853,-10.57669666,-0.561835706,15.16195237
38:18.8,1.42E+12,1.3813275,-8.166268,-6.2339363,10.36619315,-1.228674963,-10.38397542,-0.335700952,14.84025246
38:18.8,1.42E+12,-0.081580356,-4.190087,-7.013665,8.170372155,-1.335160524,-10.2767983,-0.338820464,14.74621391
38:18.8,1.42E+12,3.7058437,-1.4278808,-6.040539,7.229123911,-1.220819298,-10.24630671,-0.680209544,14.65893523
38:18.8,1.42E+12,4.057612,-0.052091673,-0.7677534,4.129936315,-0.918298398,-9.931316747,-0.858440912,14.32271554
38:18.9,1.42E+12,0.85681826,-0.122595064,0.15492782,0.879300694,-0.686319813,-9.712109599,-1.047063656,13.97691887
38:18.9,1.42E+12,-0.6366261,-1.1252102,-1.1026071,1.699156615,-0.493496775,-9.658401287,-1.213894726,13.74818091
38:18.9,1.42E+12,-0.50100815,-5.253625,-1.6127462,5.518381566,-0.311864478,-9.506182827,-1.48029275,13.46136811
38:18.9,1.42E+12,4.014053,-14.959292,1.4489868,15.55611138,-0.09633367,-9.432556927,-1.680016414,13.31468434
38:18.9,1.42E+12,2.2070105,-18.952538,-4.926106,19.70624552,-0.041191339,-9.423746247,-1.620359474,13.28978877
38:19.0,1.42E+12,-6.1354413,-19.49561,-4.2641826,20.87835488,-0.265514859,-9.482059027,-1.547808346,13.32631055
38:19.0,1.42E+12,-6.9148703,-19.554436,-1.3144166,20.7826632,-0.495005625,-9.509089827,-1.538815046,13.36500335
38:19.0,1.42E+12,-1.0377918,-19.342178,6.184988,20.33349301,-0.604014941,-9.537366027,-1.339348842,13.39471196
38:19.0,1.42E+12,-0.4656816,-17.56717,4.15012,18.05673883,-0.677377383,-9.618964367,-1.049380822,13.4098707
38:19.0,1.42E+12,2.1567152,-12.778776,3.6094441,13.45275523,-0.695271169,-9.665278047,-0.78997026,13.39158124
38:19.1,1.42E+12,1.7151333,-8.599767,2.8547137,9.222096562,-0.710132263,-9.671523067,-0.603119812,13.35985909
38:19.1,1.42E+12,-1.1779006,-4.0797663,3.08239,5.247196489,-0.761870675,-9.659706643,-0.381825996,13.27770214
38:19.1,1.42E+12,-5.199887,0.6807843,2.5752447,5.842446178,-0.937596259,-9.604211045,-0.182219082,13.22474818
38:19.1,1.42E+12,-7.9390407,2.9385393,1.1072475,8.537527598,-1.163018489,-9.547625714,-0.164295354,13.328688
38:19.1,1.42E+12,-7.688312,4.684808,2.692451,9.397172968,-1.328307767,-9.470682716,-0.131657226,13.48724863
38:19.2,1.42E+12,-6.3424606,3.699407,1.6592995,7.527661884,-1.454384585,-9.383782426,-0.108201002,13.62161581
38:19.2,1.42E+12,-0.89932984,0.4272116,-4.6797185,4.784461219,-1.474748239,-9.269423242,-0.216063702,13.61050597
38:19.2,1.42E+12,9.039402,-13.478571,-17.392183,23.78803679,-1.389386759,-9.220454062,-0.586258882,13.75298914
38:19.2,1.42E+12,6.308481,-18.510357,-17.129478,25.9971011,-1.219813399,-9.208978922,-0.798170188,13.86717009
38:19.2,1.42E+12,-1.1050022,-1.0439291,11.605217,11.70435301,-1.074797963,-8.846390944,-0.483021538,13.67479432
38:19.3,1.42E+12,-4.8175817,-9.490115,9.897119,14.53355912,-1.017398329,-8.650897444,-0.249668794,13.54911685
38:19.3,1.42E+12,-14.186599,-18.193466,10.359208,25.28981982,-1.264273953,-8.624004364,-0.095070284,13.65890959
38:19.3,1.42E+12,-8.531209,-3.8010457,6.3728476,11.30675294,-1.426389826,-8.318708218,-0.033946392,13.49790751
38:19.3,1.42E+12,-9.699829,-3.9438486,10.456506,14.79794385,-1.695191846,-8.10238406,0.088124768,13.47713492
38:19.3,1.42E+12,-7.875872,-16.76798,14.904506,23.77685455,-1.891628354,-8.24678576,0.35092128,13.75461835
38:19.4,1.42E+12,-3.8604722,-19.198477,4.778513,20.15735477,-1.94339371,-8.52312312,0.384723986,14.03108743
38:19.4,1.42E+12,3.7047958,-17.324972,-15.055841,23.2499143,-1.790633376,-8.861036415,0.020914538,14.3951294
38:19.4,1.42E+12,4.8699727,-17.369879,-1.5028747,18.10215354,-1.56325621,-9.265432467,-0.043328866,14.61118717
38:19.4,1.42E+12,4.469855,-18.572329,-1.8606308,19.19304445,-1.323472844,-9.752085467,-0.114374128,14.80260795
38:19.5,1.42E+12,4.301455,-16.19108,-6.113587,17.83338254,-1.099170284,-10.18136577,-0.265901032,14.98293232
38:19.5,1.42E+12,3.7130287,-11.537108,-9.80012,15.5863336,-0.954567984,-10.46030171,-0.448242839,15.20830385
38:19.5,1.42E+12,3.6194732,-9.654473,-6.7611403,12.32973857,-1.0429442,-10.50395691,-0.302565785,15.0984145
38:19.5,1.42E+12,1.8321899,-6.0281143,-6.2655206,8.885484243,-1.153058214,-10.26584106,-0.080433717,14.75563966
38:19.5,1.42E+12,3.2043865,-2.700235,-6.9989953,8.157530086,-1.176726994,-10.11596672,-0.049651733,14.63874117
38:19.5,1.42E+12,5.548811,-1.3780344,-3.3070729,6.604923428,-1.023945706,-10.15215547,-0.370162221,14.51291386
38:19.6,1.42E+12,2.5884173,-1.0288106,1.3620176,3.100555968,-0.79094922,-9.908303559,-0.483799909,14.22476431
38:19.6,1.42E+12,0.22917344,-0.68018556,0.7685019,1.051555054,-0.538319571,-9.61162951,-0.715353391,13.77806641
38:19.6,1.42E+12,-0.56567365,-2.565964,-0.46912444,2.669126387,-0.336733784,-9.568393422,-0.879145779,13.55196865
38:19.6,1.42E+12,1.8636246,-11.381133,-0.31135255,11.5369071,-0.106584372,-9.601537502,-1.09365869,13.43860445
38:19.6,1.42E+12,3.4923875,-18.297201,-2.6041346,18.80866428,0.112407238,-9.609551842,-1.402909602,13.34948961
38:19.7,1.42E+12,-6.0926304,-19.406544,-5.9824595,21.20197908,0.03127595,-9.610641582,-1.516682013,13.38430739
38:19.7,1.42E+12,-8.214318,-19.55743,-3.3441956,21.47444371,-0.25322543,-9.631711742,-1.329894425,13.34929769
38:19.7,1.42E+12,-1.2364289,-19.577938,5.360353,20.3361205,-0.392226374,-9.639010582,-1.154576003,13.34938387
38:19.8,1.42E+12,1.3623171,-18.818117,4.224964,19.33462583,-0.467576678,-9.661365082,-1.008162475,13.36233718
38:19.8,1.42E+12,2.4243586,-14.551839,2.8883936,15.03250979,-0.50790282,-9.700353002,-0.782575583,13.34742493
38:19.8,1.42E+12,1.6232245,-10.582693,3.0813422,11.14104657,-0.538313582,-9.697368202,-0.545501579,13.28598409
38:19.8,1.42E+12,-0.52795213,-6.6225286,3.8748422,7.690970068,-0.576499175,-9.666493414,-0.343326009,13.23247962
38:19.8,1.42E+12,-3.336412,-1.2611275,3.5765126,5.051091959,-0.641595807,-9.607914224,-0.131522457,13.17009402
38:19.8,1.42E+12,-6.6000752,1.5929874,1.1811937,6.891576021,-0.847714185,-9.54749686,0.012912197,13.16334306
38:19.8,1.42E+12,-7.830067,4.0972795,0.13352233,8.838296031,-1.085467765,-9.464509436,0.030937711,13.25751026
38:19.9,1.42E+12,-7.6496925,5.363347,1.6001724,9.478598952,-1.255597981,-9.354790595,0.059842603,13.42949622
38:19.9,1.42E+12,-5.520819,3.7071908,0.085023195,6.650558999,-1.353281839,-9.258142575,0.083595209,13.52852427
38:19.9,1.42E+12,3.7669168,-2.9539573,-10.699151,11.72123535,-1.26792334,-9.212149221,-0.098132887,13.65258135
38:19.9,1.42E+12,8.889265,-17.053139,-18.346449,26.57857733,-1.1704191,-9.254026161,-0.494041603,13.87303067
38:19.9,1.42E+12,4.4671607,-10.718611,-3.0897248,12.01626172,-1.125216096,-9.089347621,-0.457313979,13.71923099
38:20.0,1.42E+12,-1.7958156,5.028044,14.141093,15.11544546,-1.038423582,-8.598874541,-0.089208467,13.6039728
38:20.0,1.42E+12,-6.443351,-7.207362,11.996054,15.40675666,-1.028993196,-8.351933061,0.177000945,13.49645467
38:20.0,1.42E+12,-14.773378,-17.897982,7.29987,24.3285544,-1.30370492,-8.323049141,0.199298585,13.5763559
38:20.0,1.42E+12,-5.2024317,-10.277628,-3.4837055,12.03458088,-1.398439922,-8.177258301,0.046622075,13.45591274
38:20.1,1.42E+12,-4.855902,-6.8533483,6.908434,10.8754139,-1.538692266,-8.058749747,0.112601873,13.40436591
38:20.1,1.42E+12,-3.3976345,-16.141085,15.0012045,22.29606875,-1.640947622,-8.209576107,0.355531689,13.66584536
38:20.1,1.42E+12,-1.7377363,-19.113153,8.54977,21.01025731,-1.652144336,-8.510243841,0.464879289,13.98110657
38:20.1,1.42E+12,2.8488758,-18.584454,-9.184002,20.92472023,-1.49116908,-8.895548607,0.229694355,14.28275205
38:20.1,1.42E+12,5.175188,-18.34585,-7.470964,20.47359485,-1.228884506,-9.321236393,0.058130125,14.5214734
38:20.1,1.42E+12,3.3220417,-18.25454,-3.2316298,18.8336832,-1.008677432,-9.780023353,-0.060351491,14.7102036
38:20.2,1.42E+12,2.0411553,-15.325581,-6.079757,16.61334383,-0.841005114,-10.16052311,-0.215132621,14.89191724
38:20.2,1.42E+12,0.4219725,-11.22411,-10.212513,15.18071566,-0.814579067,-10.39354955,-0.325788511,15.09984233
38:20.2,1.42E+12,0.77987826,-7.949968,-8.506211,11.66901139,-0.979769542,-10.28297749,-0.148069071,14.85746182
38:20.2,1.42E+12,1.3650115,-5.1509385,-7.469018,9.17505606,-1.078638932,-10.01578912,0.045140129,14.52102092
38:20.2,1.42E+12,3.165617,-3.6068995,-9.803114,10.91475603,-0.993226548,-10.06704852,-0.383026491,14.50522898
38:20.3,1.42E+12,4.439019,-0.94812834,-0.4098477,4.557610357,-0.808094534,-9.89620879,-0.589165825,14.30571001
38:20.3,1.42E+12,2.4849825,0.19070344,2.6753864,3.65639142,-0.474662904,-9.528525401,-0.742842257,13.87304144
38:20.3,1.42E+12,1.7118402,-0.48094985,-0.005688171,1.778128787,-0.26980192,-9.462123484,-0.870412973,13.68246896
38:20.3,1.42E+12,0.27258316,-2.5753944,-1.9493963,3.241466308,-0.070353676,-9.4347544,-1.118531019,13.45133941
38:20.3,1.42E+12,1.4242882,-10.240206,-0.09939331,10.33925988,0.115649528,-9.30419892,-1.418609005,13.18258751
38:20.4,1.42E+12,5.778284,-18.14871,0.79933774,19.06313672,0.308424652,-9.28320358,-1.49819251,13.16070315
38:20.4,1.42E+12,-3.0735586,-19.386335,-5.4045115,20.35891676,0.172857564,-9.32443084,-1.30516592,13.1028832
38:20.4,1.42E+12,-7.744146,-19.554586,-4.0520735,21.41898528,-0.07942481,-9.36812498,-1.356149896,13.16921983
38:20.4,1.42E+12,-4.1897874,-19.577488,0.5480104,20.02829674,-0.252617658,-9.38822816,-1.307977072,13.18592488
38:20.5,1.42E+12,0.53364027,-19.580631,3.1374755,19.83758137,-0.327973953,-9.45601918,-1.122955822,13.22600886
38:20.5,1.42E+12,0.61117905,-16.254848,4.412674,16.85423731,-0.390010946,-9.55037398,-0.838699942,13.25136693
38:20.5,1.42E+12,2.8623476,-11.376792,3.5591488,12.25936255,-0.405153458,-9.58482036,-0.63229416,13.24995941
38:20.5,1.42E+12,0.34458342,-7.707622,3.750002,8.578385024,-0.434905588,-9.618410514,-0.431983708,13.24381743
38:20.5,1.42E+12,-2.6009912,-2.7303224,4.117787,5.583545953,-0.551013142,-9.619012262,-0.209648062,13.19233774
38:20.5,1.42E+12,-6.408174,1.9604732,2.4292982,7.128088027,-0.790152842,-9.55224211,-0.09492064,13.20280104
38:20.6,1.42E+12,-8.215816,4.9135323,0.38395157,9.580702011,-1.006237508,-9.433395252,-0.114481961,13.33240396
38:20.6,1.42E+12,-8.103549,5.945486,1.9549347,10.23904682,-1.172891956,-9.300881821,-0.090753305,13.51615379
38:20.6,1.42E+12,-6.0640397,3.4902918,0.16181351,6.998635434,-1.282859277,-9.179756705,-0.078134546,13.60274397
38:20.6,1.42E+12,1.121917,-1.2657678,-8.148156,8.32185749,-1.297693429,-8.977449401,-0.234870615,13.53844298
38:20.6,1.42E+12,7.405999,-15.123052,-17.962646,24.62137637,-1.219421199,-8.913966421,-0.542040843,13.65469722
38:20.7,1.42E+12,4.6369076,-16.356787,-13.206437,21.52801364,-1.004830439,-8.852971281,-0.686520393,13.66121791
38:20.7,1.42E+12,-0.56118304,2.651586,12.083622,12.38385059,-0.85176774,-8.408790961,-0.377964041,13.47940605
38:20.7,1.42E+12,-3.9779778,-6.3987436,10.1706,12.65738249,-0.906598718,-8.145207073,-0.281759101,13.32583129
38:20.7,1.42E+12,-13.888569,-17.56223,8.379874,23.90703996,-1.21161644,-8.120089333,-0.198660901,13.41727957
38:20.7,1.42E+12,-6.0382934,-9.067694,1.511407,10.99856412,-1.38086948,-8.010406433,-0.226200633,13.33660066
38:20.8,1.42E+12,-7.2504725,-4.548741,6.486611,10.73948409,-1.55834342,-7.889727393,-0.158095257,13.32856941
38:20.8,1.42E+12,-6.518195,-14.212046,12.907808,20.2751233,-1.678148278,-8.041517741,0.022564059,13.58025248
38:20.8,1.42E+12,-4.434079,-18.847456,10.814411,22.17744664,-1.700101618,-8.393244311,0.167322027,13.92277957
38:20.8,1.42E+12,1.6516653,-19.481388,-8.483309,21.31241442,-1.535066808,-8.814731819,-0.025968027,14.21119634
38:20.8,1.42E+12,7.0956945,-18.058447,-7.8145,20.91704565,-1.236551578,-9.257846349,-0.184928473,14.45277133
38:20.9,1.42E+12,5.715714,-18.982027,-2.4661217,19.97669872,-0.969243448,-9.744753829,-0.266254355,14.66273332
38:20.9,1.42E+12,4.128565,-16.818874,-6.01599,18.33334959,-0.776255768,-10.15527513,-0.388274619,14.89638914
38:20.9,1.42E+12,2.210154,-11.969559,-10.023157,15.76765041,-0.807391024,-10.33558716,-0.374754739,14.97731744
38:20.9,1.42E+12,1.9579284,-9.430539,-8.834928,13.06998478,-0.946017756,-10.18313516,-0.184524319,14.70714559
38:20.9,1.42E+12,1.5274237,-6.792575,-6.6166906,9.604826536,-1.004812496,-10.10461444,-0.255063635,14.65891688
38:21.0,1.42E+12,0.87942123,-3.2340248,-6.455925,7.27401304,-0.951307759,-10.26985582,-0.667003995,14.50208823
38:21.0,1.42E+12,4.2123904,-0.37646714,-2.6595194,4.995898701,-0.738192931,-10.13323792,-0.960115463,14.29387108
38:21.0,1.42E+12,4.690945,0.30147308,-1.9185604,5.077078394,-0.348906471,-9.769248816,-1.144484071,13.90884156
38:21.1,1.42E+12,1.0603949,-0.6783893,-2.4336393,2.739936063,-0.223649939,-9.577264042,-1.123482747,13.72294866
38:21.1,1.42E+12,-1.004561,-2.2980213,0.5387297,2.565204551,-0.146623119,-9.486157502,-1.250876833,13.55674447
38:21.1,1.42E+12,0.76820254,-8.407267,1.7597406,8.623743997,-0.063306378,-9.331481142,-1.515706111,13.28329798
38:21.1,1.42E+12,5.0490007,-17.213903,0.14265335,17.93965481,0.072428362,-9.293496142,-1.683848444,13.22188593
38:21.1,1.42E+12,-0.6954538,-19.2591,-7.0063305,20.50573715,0.00154177,-9.306989062,-1.640295014,13.21350627
38:21.1,1.42E+12,-5.6784415,-19.537373,-4.3393264,20.80344671,-0.21553082,-9.330819522,-1.577662262,13.2201033
38:21.1,1.42E+12,-3.7952077,-19.575243,-1.2457095,19.97862688,-0.357875808,-9.357233582,-1.537943856,13.24300218
38:21.2,1.42E+12,0.26899064,-19.550245,2.8605514,19.76024266,-0.393319101,-9.441726862,-1.359137688,13.30594015
38:21.2,1.42E+12,1.7616866,-16.651373,5.136419,17.51441014,-0.366524819,-9.550272122,-1.052159048,13.35261404
38:21.2,1.42E+12,5.1114206,-11.417657,2.138453,12.69103988,-0.279893973,-9.619625902,-0.839265768,13.37305461
38:21.2,1.42E+12,0.66955763,-7.433841,2.0242405,7.733553455,-0.29380305,-9.665283952,-0.649400598,13.34422456
38:21.2,1.42E+12,-2.954556,-2.8072622,3.186873,5.173613992,-0.41620651,-9.649291206,-0.389600858,13.22940172
38:21.3,1.42E+12,-6.632258,1.736988,2.698289,7.367817656,-0.63763205,-9.595588879,-0.327438124,13.28560587
38:21.3,1.42E+12,-8.604258,3.987857,0.57944506,9.501158654,-0.85941686,-9.519645808,-0.369356951,13.40250121
38:21.3,1.42E+12,-8.364606,5.563481,2.5273445,10.35888144,-1.060945784,-9.398757191,-0.318696298,13.57411626
38:21.3,1.42E+12,-6.9539394,4.6466374,2.443369,8.713125982,-1.205476235,-9.254316555,-0.230840992,13.68354946
38:21.4,1.42E+12,-0.9463321,0.36658767,-6.158194,6.241256629,-1.252888641,-9.042180682,-0.352017005,13.60158939
38:21.4,1.42E+12,5.3784657,-15.673307,-17.723293,24.26304928,-1.260885007,-8.992672622,-0.72246962,13.70558764
38:21.4,1.42E+12,6.0447297,-16.6623,-13.454172,22.25276933,-1.078519241,-8.938191922,-0.88346283,13.74346469
38:21.4,1.42E+12,2.7640023,-6.49679,13.858182,15.55304463,-0.868356275,-8.677036002,-0.52525772,13.62614588
38:21.4,1.42E+12,-6.7502127,-17.31599,8.543783,20.45495317,-0.919564781,-8.631806042,-0.365342268,13.63467901
38:21.4,1.42E+12,-9.623937,-8.180638,12.956457,18.0945511,-1.122716327,-8.403806182,-0.168962638,13.5998184
38:21.5,1.42E+12,-11.691737,1.2380754,11.343711,16.33735976,-1.368774648,-8.053947714,-0.030341898,13.58948085
38:21.5,1.42E+12,-12.892989,-7.412735,11.069331,18.53936068,-1.68388138,-7.974666574,0.119861746,13.71508082
38:21.5,1.42E+12,-8.572523,-17.814754,12.432397,23.35418819,-1.862223508,-8.176809214,0.293509646,14.01059688
38:21.5,1.42E+12,-2.0207977,-19.34083,-3.267106,19.71865386,-1.850619638,-8.509019366,0.145811786,14.29329904
38:21.5,1.42E+12,4.996011,-16.463814,-13.445789,21.83590024,-1.622535938,-8.87750511,-0.171689958,14.58745528
38:21.6,1.42E+12,6.142327,-18.848654,-3.0051508,20.05070747,-1.335373078,-9.352748836,-0.239472006,14.79685539
38:21.6,1.42E+12,5.5610857,-18.73983,-5.0912127,20.19968686,-1.062080384,-9.846455156,-0.380394954,14.99606819
38:21.6,1.42E+12,3.8040395,-13.514796,-10.2878065,17.40572866,-0.8647188,-10.18655691,-0.589387354,15.20421006
38:21.6,1.42E+12,4.603078,-10.540331,-7.80956,13.90237865,-0.79509558,-10.37204818,-0.582615434,15.31582048
38:21.6,1.42E+12,3.5203793,-8.649613,-7.065757,11.71041406,-0.872807974,-10.2425794,-0.364677654,15.05760123
38:21.7,1.42E+12,1.1533515,-3.8902602,-8.725056,9.622418943,-0.942479096,-9.99324886,-0.275050034,14.81948934
38:21.7,1.42E+12,1.9621197,-1.6979191,-5.7805295,6.33619478,-0.892013041,-10.08023896,-0.632333064,14.69853622
38:21.7,1.42E+12,2.7590625,1.2434642,1.0925779,3.217507663,-0.757272235,-9.927394806,-0.813893506,14.50973873
38:21.7,1.42E+12,1.781146,0.719404,1.0455757,2.187064638,-0.443877935,-9.561762126,-0.960579472,14.07533922
38:21.7,1.42E+12,1.4825171,-0.65369064,-1.4847624,2.197655066,-0.293461725,-9.393482059,-1.02050286,13.89932104
38:21.8,1.42E+12,0.9119037,-4.966672,-1.1579919,5.180766773,-0.130214201,-9.401840679,-1.173394918,13.78814669
38:21.8,1.42E+12,4.423751,-15.000755,1.2663666,15.69063121,0.088624719,-9.417614859,-1.406223746,13.69645685
38:21.8,1.42E+12,2.4161255,-18.958076,-4.205804,19.56872748,0.225628809,-9.419827259,-1.706628046,13.64428247
38:21.8,1.42E+12,-6.16972,-19.496357,-4.8614407,21.01920519,0.069201103,-9.420126639,-1.63419068,13.63841828
38:21.8,1.42E+12,-7.320078,-19.569555,-3.2807276,21.14980374,-0.219114347,-9.450348799,-1.543515232,13.64307344
38:21.9,1.42E+12,-0.76820254,-19.579584,8.220006,21.24897041,-0.348792678,-9.462299939,-1.329792678,13.66851888
38:21.9,1.42E+12,0.9279204,-18.55766,4.707261,19.16783992,-0.41280557,-9.497075659,-1.115327658,13.68520869
38:21.9,1.42E+12,4.7599516,-13.947546,2.4912694,14.94649129,-0.361809618,-9.536635399,-0.86503913,13.6687855
38:21.9,1.42E+12,3.0955627,-9.308244,3.0776,10.28093072,-0.339056932,-9.534189499,-0.62678857,13.61300442
38:21.9,1.42E+12,0.16555573,-5.5115385,4.402944,7.056229957,-0.366294291,-9.508568769,-0.406395878,13.56203249
38:22.0,1.42E+12,-3.864813,-0.78496766,4.6822634,6.121808907,-0.461178976,-9.459587626,-0.18363211,13.53898841
38:22.0,1.42E+12,-7.3024144,2.689158,1.2027489,7.874225786,-0.691475072,-9.398275123,-0.106386744,13.59655495
38:22.0,1.42E+12,-9.383537,5.0960026,-0.32332763,10.68290924,-0.972964712,-9.302384533,-0.074482088,13.70867157
38:22.0,1.42E+12,-9.568253,5.0802855,0.08876541,10.83368107,-1.18553767,-9.187211037,-0.024033994,13.87054647
38:22.0,1.42E+12,-5.2168016,2.1179457,-1.1521541,5.747014181,-1.269782482,-9.098891697,-0.05785167,13.93418266
38:22.1,1.42E+12,3.8583765,-5.527256,-10.789264,12.72186487,-1.207979003,-9.041291477,-0.308831762,14.01614508
38:22.1,1.42E+12,4.927902,-16.070131,-18.006805,24.63287143,-1.210400977,-9.018416037,-0.671820929,14.15000941
38:22.1,1.42E+12,3.6119888,-11.015293,-6.5916924,13.33542469,-1.124252125,-8.853539897,-0.663528167,14.00660316
38:22.1,1.42E+12,0.6803352,-2.5101302,13.1543455,13.40896771,-0.997076591,-8.512995041,-0.313654729,13.85871358
38:22.1,1.42E+12,-6.17451,-16.764389,6.0200315,18.85232324,-1.044662637,-8.456777961,-0.168339909,13.83618751
38:22.2,1.42E+12,-6.157595,-14.787748,7.1844597,17.55590864,-1.17319435,-8.361528021,-0.081861743,13.79210083
38:22.2,1.42E+12,-7.3566017,-1.1404784,6.9528913,10.18641139,-1.355560116,-8.051310129,-0.045532297,13.64554085
38:22.2,1.42E+12,-11.394455,-3.1509476,11.147618,16.24904497,-1.685677628,-7.885975941,0.134651003,13.71670095
38:22.2,1.42E+12,-7.644902,-16.937578,15.363602,24.11153959,-1.85196682,-8.076050681,0.401438233,14.04426068
38:22.2,1.42E+12,-3.8444555,-19.221529,8.310718,21.29119651,-1.86976481,-8.404336017,0.503915133,14.36661233
38:22.3,1.42E+12,5.0296907,-18.863623,-14.567706,24.35882015,-1.636525836,-8.816348237,0.158595233,14.70643238
38:22.3,1.42E+12,6.998397,-18.44225,-3.423381,20.02033174,-1.324472736,-9.264950377,0.078538712,14.91681584
38:22.4,1.42E+12,5.7573276,-19.411184,-3.9005888,20.61929869,-1.042034064,-9.764443677,-0.050019954,15.12202418
38:22.4,1.42E+12,4.357738,-16.151264,-7.715555,18.42235051,-0.815800516,-10.1804017,-0.253198434,15.31620867
38:22.4,1.42E+12,3.1287937,-10.287956,-10.818153,15.2533217,-0.734298,-10.39349258,-0.346397614,15.49644997
38:22.4,1.42E+12,3.2533348,-9.370963,-6.840475,12.04953248,-0.776800618,-10.2674457,-0.128741254,15.25217964
38:22.4,1.42E+12,0.8650511,-4.7138476,-8.250243,9.541235882,-0.88039419,-10.02847665,-0.024662674,14.99794897
38:22.4,1.42E+12,1.9468515,-2.1859045,-8.175399,8.683637375,-0.896737206,-9.94225894,-0.465334294,14.86056082
38:22.4,1.42E+12,3.041974,0.56028485,0.88181627,3.216383818,-0.700893472,-9.584733443,-0.618573629,14.51578944
38:22.4,1.42E+12,1.5242802,0.24504043,1.0364447,1.859487176,-0.477929128,-9.416219874,-0.856973875,14.19108816
38:22.5,1.42E+12,1.4259348,-0.71311706,-0.952619,1.85723153,-0.215575692,-9.455243724,-1.102900475,13.90148559
38:22.5,1.42E+12,0.8158035,-3.4569113,-2.5346792,4.363527212,0.058600158,-9.37612725,-1.374980679,13.61796893
38:22.5,1.42E+12,2.5896149,-10.872491,-0.48633865,11.18721105,0.281842916,-9.23728199,-1.633355392,13.37462938
38:22.5,1.42E+12,6.6888404,-18.046022,0.40894958,19.25011002,0.456035678,-9.21138583,-1.55983428,13.36525851
38:22.5,1.42E+12,-0.92567503,-19.372416,-4.1050634,19.8242004,0.337601957,-9.26955787,-1.373019768,13.32502451
38:22.6,1.42E+12,-6.0944266,-19.55279,-3.1328351,20.7187907,0.092866885,-9.28364059,-1.375573454,13.33838617
38:22.6,1.42E+12,-3.6167789,-19.57734,-3.4858012,20.21148538,-0.090690407,-9.30039079,-1.343465224,13.33862214
38:22.6,1.42E+12,0.4593947,-19.565514,4.2926235,20.0361423,-0.157583303,-9.42140515,-1.051856624,13.39123042
38:22.6,1.42E+12,1.7772542,-15.790962,5.210365,16.7230684,-0.214099779,-9.52641777,-0.791458124,13.44764421
38:22.6,1.42E+12,3.977379,-11.067086,1.9489472,11.92050047,-0.204959785,-9.57476723,-0.61116404,13.45184594
38:22.7,1.42E+12,0.19863693,-7.8149486,2.012565,8.072378592,-0.224054076,-9.653260998,-0.39641162,13.42084513
38:22.7,1.42E+12,-2.7310708,-2.6957443,3.3388069,5.086591841,-0.317917886,-9.673217502,-0.214024892,13.39585307
38:22.7,1.42E+12,-6.793473,1.5925384,2.165846,7.306048375,-0.508968596,-9.666236018,-0.19255953,13.47762389
38:22.7,1.42E+12,-9.01665,4.0035744,1.6979191,10.01057014,-0.724924516,-9.60055261,-0.179512662,13.634094
38:22.7,1.42E+12,-8.856033,4.201762,1.5009288,9.916496945,-0.931695518,-9.503443557,-0.119798838,13.78847084
38:22.8,1.42E+12,-6.3747935,2.783761,0.27617568,6.961579597,-1.077429462,-9.348434897,-0.091115487,13.82408709
38:22.8,1.42E+12,1.1053015,-2.017355,-7.52096,7.864874565,-1.143798452,-9.088766897,-0.266862019,13.66757196
38:22.8,1.42E+12,7.806117,-16.185392,-17.366587,24.99001242,-1.035998622,-9.033313217,-0.530077679,13.77599766
38:22.8,1.42E+12,2.844834,-13.016632,-10.899136,17.21385938,-0.855707542,-8.903718717,-0.650831585,13.69989074
38:22.8,1.42E+12,1.2645704,-0.4963678,5.3332596,5.503560416,-0.684014574,-8.522254973,-0.478551841,13.38696588
38:22.9,1.42E+12,-0.8427475,-1.6072078,12.314741,12.44773819,-0.685505473,-8.162807449,-0.396657141,13.21094123
38:22.9,1.42E+12,-10.543625,-15.590979,8.579409,20.6846057,-0.914936381,-8.103473829,-0.319214181,13.24127655
38:22.9,1.42E+12,-7.6704993,-15.517033,6.068381,18.34230412,-1.163545399,-8.134863569,-0.247671949,13.3091928
38:22.9,1.42E+12,-6.266868,-5.868247,3.4795144,9.263745346,-1.350794013,-8.066063629,-0.239633661,13.2888491
38:22.9,1.42E+12,-7.3904314,-6.536308,7.4862323,12.38488888,-1.501913756,-8.086559019,-0.177967895,13.39542227
38:23.0,1.42E+12,-4.728667,-15.758031,11.707305,20.19249422,-1.519190836,-8.386020286,-0.037467063,13.67683598
38:23.0,1.42E+12,-1.9146684,-19.061062,6.428083,20.20668926,-1.411435916,-8.821024686,0.067039619,13.92348525
38:23.0,1.42E+12,4.732858,-18.08614,-8.799602,20.66256035,-1.129108016,-9.284667538,-0.102485868,14.12307827
38:23.0,1.42E+12,7.1819153,-17.856817,-4.1209307,19.68318802,-0.79410465,-9.743409588,-0.18667979,14.30006841
38:23.0,1.42E+12,5.912854,-19.313139,-3.231929,20.45493939,-0.571511538,-10.17203128,-0.228275288,14.59422692
38:23.1,1.42E+12,4.827162,-17.035624,-6.364764,18.81553079,-0.552135828,-10.40219864,-0.139785288,14.71610023
38:23.1,1.42E+12,3.8910086,-11.612851,-10.789114,16.32186378,-0.572873696,-10.31305304,0.004568532,14.54988008
38:23.1,1.42E+12,3.8947508,-9.7377,-7.5080867,12.8981879,-0.567218456,-10.28750118,-0.013759354,14.54113535
38:23.1,1.42E+12,1.4690452,-5.4033136,-7.520661,9.376259037,-0.551444256,-10.34536485,-0.427259484,14.46048117
38:23.2,1.42E+12,1.6618441,-3.1031969,-9.821077,10.432886,-0.394717174,-10.07214101,-0.744081654,14.29209243
38:23.2,1.42E+12,2.7839108,-0.49951127,-1.8721569,3.391849394,-0.215887058,-9.786376273,-0.925213986,14.00881124
38:23.2,1.42E+12,2.1080663,0.91863966,2.834805,3.650200233,-0.026593698,-9.745193912,-1.007575712,13.87808702
38:23.2,1.42E+12,2.1420455,0.3662883,1.4691948,2.623177349,0.244136312,-9.674849194,-1.201144176,13.60556967
38:23.2,1.42E+12,1.6705261,-2.5249493,-1.4940431,3.376120733,0.430444874,-9.38659662,-1.538297078,13.19086129
38:23.2,1.42E+12,2.3334975,-8.181237,-0.76760375,8.54207615,0.554003934,-9.16579078,-1.719863513,12.93587888
38:23.3,1.42E+12,6.701115,-17.153728,2.8437862,18.63444248,0.58743242,-9.13159288,-1.371633669,12.82139133
38:23.3,1.42E+12,0.6090834,-19.251017,-3.179089,19.52125111,0.459646148,-9.14776822,-1.366747829,12.81140972
38:23.3,1.42E+12,-5.565277,-19.536175,-2.9448261,20.52575072,0.233194056,-9.15026804,-1.347632575,12.80953876
38:23.3,1.42E+12,-7.285051,-19.575094,-4.277355,21.32022605,0.000338276,-9.21874464,-1.278868575,12.86749627
38:23.3,1.42E+12,-2.6455984,-19.580332,-3.257077,20.02491305,-0.115149566,-9.40459216,-1.127647055,12.96292809
38:23.4,1.42E+12,-0.30686188,-19.581081,3.6724632,19.92485592,-0.1863535,-9.60879452,-0.917388291,13.12043456
38:23.4,1.42E+12,3.0719118,-16.774267,3.807183,17.47304547,-0.142216286,-9.850002908,-0.676239771,13.27907075
38:23.4,1.42E+12,3.2433054,-11.168724,1.8971548,11.78382884,-0.116287208,-10.0296593,-0.474788695,13.34107458
38:23.4,1.42E+12,0.061671752,-6.52553,3.7256026,7.514416805,-0.175893253,-10.17137559,-0.417912969,13.42703524
38:23.4,1.42E+12,-2.9014165,-2.241888,3.5161881,5.080143528,-0.264407187,-10.22111416,-0.368318101,13.49144837
38:23.5,1.42E+12,-6.1541524,1.4768289,0.41388932,6.342390695,-0.416008931,-10.17731524,-0.340987934,13.58115155
38:23.5,1.42E+12,-7.9457765,4.522246,-1.4004877,9.249185849,-0.591240531,-10.0177321,-0.318304104,13.67886473
38:23.5,1.42E+12,-8.282127,5.8368125,1.386866,10.2267006,-0.808675369,-9.683546028,-0.280840011,13.65965452
38:23.5,1.42E+12,-6.0122476,3.7303927,2.0534298,7.367463936,-1.062697129,-9.248017734,-0.247950407,13.4220016
38:23.5,1.42E+12,1.5925384,-1.0603949,-4.4869194,4.877813199,-1.01233286,-8.881777312,-0.255587527,13.12307385
38:23.6,1.42E+12,7.303612,-14.685362,-14.528638,21.91081759,-0.744372088,-8.784428752,-0.483503585,13.14691439
38:23.6,1.42E+12,4.269272,-16.631914,-15.578704,23.1849793,-0.58665107,-8.725520232,-0.725361641,13.20638427
38:23.7,1.42E+12,1.3850697,-1.3919554,6.9253488,7.198361891,-0.56813757,-8.36204906,-0.672707135,12.94962866
38:23.7,1.42E+12,-1.782643,-4.1546106,10.748998,11.66102754,-0.639335514,-8.129322032,-0.561934475,12.84838784
38:23.7,1.42E+12,-12.786111,-16.820671,8.096214,22.62671626,-0.974605314,-8.244393732,-0.438989139,13.06251216
38:23.7,1.42E+12,-6.1022105,-12.201278,3.7877233,14.15821336,-1.100622263,-8.33212032,-0.403485973,13.18422885
38:23.7,1.42E+12,-6.72267,-2.9770093,4.7695317,8.763863813,-1.180454247,-8.33774562,-0.374871477,13.25777429
38:23.7,1.42E+12,-7.1715865,-6.9403176,10.067315,14.17570078,-1.188016517,-8.50840274,-0.216842097,13.39516734
38:23.7,1.42E+12,-4.594396,-16.844921,13.64712,22.16086015,-1.099571437,-8.925372648,0.022141921,13.63817314
38:23.7,1.42E+12,-1.95718,-19.208954,5.190756,19.99395947,-0.961594377,-9.393586968,0.095938465,13.83972239
38:23.8,1.42E+12,5.0798364,-17.318087,-11.755804,21.53879762,-0.732501779,-9.795623928,-0.144701129,14.13126675
38:23.8,1.42E+12,6.645281,-18.472187,-4.0481815,20.04418184,-0.621702189,-10.12472057,-0.075245559,14.3748529
38:23.8,1.42E+12,5.3283195,-18.385817,-2.989134,19.37431747,-0.671258139,-10.16872907,0.212303501,14.262539
38:23.8,1.42E+12,4.7403426,-15.846048,-6.145171,17.64458024,-0.633347967,-10.22531739,0.307382801,14.27115342
38:23.8,1.42E+12,4.3402243,-11.172915,-10.212363,15.74687063,-0.571834889,-10.43884833,-0.003529651,14.47601962
38:23.9,1.42E+12,4.4423122,-8.95902,-6.898105,12.14833444,-0.466133695,-10.58588458,-0.387786571,14.47003155
38:23.9,1.42E+12,2.6466463,-5.3923864,-6.230194,8.654356418,-0.202328269,-10.38191272,-0.683978631,14.22942656
38:23.9,1.42E+12,2.289938,-2.6417065,-7.8788657,8.619684101,-0.003119523,-10.12440619,-0.962923565,14.03497416
38:23.9,1.42E+12,4.29906,-0.5854326,-2.113455,4.826110261,0.208199037,-10.01874991,-1.074782953,13.94622146
38:24.0,1.42E+12,3.0912218,0.4896318,1.9368224,3.68058046,0.417832101,-9.87823111,-1.185771151,13.77213529
38:24.0,1.42E+12,1.9058368,0.08202942,1.2792398,2.296823284,0.550522177,-9.561429902,-1.394332455,13.41422187
38:24.0,1.42E+12,1.2443624,-2.2662873,-1.2111315,2.855054364,0.613702793,-9.225534408,-1.547116745,13.06718917
38:24.0,1.42E+12,3.1461575,-9.928853,-0.34338593,10.42105286,0.581968783,-9.062388668,-1.377992423,12.86235902
38:24.0,1.42E+12,7.072792,-18.006805,2.2118006,19.4720691,0.579786317,-9.065388428,-1.251337797,12.85813665
38:24.0,1.42E+12,-0.36179763,-19.367025,-3.6314483,19.70786573,0.454293285,-9.066466148,-1.259328183,12.84319517
38:24.1,1.42E+12,-4.9235616,-19.552042,-2.8888426,20.36833859,0.259278813,-9.116794508,-1.189809755,12.87425133
38:24.1,1.42E+12,-5.655988,-19.56207,-4.0857534,20.76916377,0.068338881,-9.275778888,-1.055742543,12.96319733
38:24.1,1.42E+12,-1.6485219,-19.497555,0.61087966,19.57665573,-0.042526573,-9.470975988,-0.893363216,13.09676668
38:24.1,1.42E+12,0.94528425,-19.569704,4.2676253,20.05192017,-0.053001792,-9.754303796,-0.65759749,13.31027991
38:24.1,1.42E+12,3.1343322,-16.251106,2.7827134,16.78290733,-0.02355203,-10.01726198,-0.405521682,13.43728033
38:24.2,1.42E+12,2.2939796,-11.810889,1.1337423,12.08490021,-0.033350654,-10.24348953,-0.345403698,13.61114135
38:24.2,1.42E+12,-0.4245172,-8.883726,3.1404693,9.432038482,-0.084002324,-10.43953685,-0.339290412,13.72677811
38:24.2,1.42E+12,-2.210603,-4.0776706,2.4041505,5.224375826,-0.171055294,-10.52841602,-0.320591298,13.77880208
38:24.2,1.42E+12,-5.2230887,0.3649411,0.45759842,5.255780997,-0.30892759,-10.47061822,-0.281558468,13.81639529
38:24.2,1.42E+12,-8.546477,3.2184572,-1.4688954,9.249777811,-0.52652708,-10.24262433,-0.295584301,13.83054932
38:24.3,1.42E+12,-9.048983,3.662883,-0.8919951,9.802880213,-0.84152904,-9.826292112,-0.370299927,13.65391808
38:24.3,1.42E+12,-7.5525446,3.60181,1.4676979,8.495181124,-1.0047616,-9.369235572,-0.277364189,13.43339668
38:24.3,1.42E+12,-2.5327332,-1.0050101,1.3316308,3.032824319,-0.944110724,-8.998612274,-0.191835051,13.08353815
38:24.3,1.42E+12,5.7586746,-7.336843,-5.91959,11.04686128,-0.683236212,-8.753847254,-0.224679751,12.87807085
38:24.3,1.42E+12,10.415491,-17.511185,-15.896493,25.84226272,-0.422014424,-8.712464314,-0.477468071,12.99441785
38:24.4,1.42E+12,4.628375,-9.82901,-11.827654,16.06003399,-0.323309687,-8.517422894,-0.787470415,12.91712141
38:24.4,1.42E+12,1.6554075,-0.9648935,0.508792,1.982489031,-0.351639773,-8.201235424,-0.853438235,12.60731028
38:24.4,1.42E+12,-3.700904,-2.5099804,8.745114,9.822103181,-0.490523961,-8.028060552,-0.716479051,12.56807577
38:24.4,1.42E+12,-12.446767,-16.692837,7.8929367,22.26816709,-0.740692736,-8.231406692,-0.633132369,12.86315077
38:24.4,1.42E+12,-4.291725,-14.077326,3.088228,15.03752516,-0.768498906,-8.468115452,-0.641691571,13.06229841
38:24.5,1.42E+12,-5.6853275,-4.0733294,3.223846,7.701178106,-0.759122408,-8.579118618,-0.585492437,13.08947415
38:24.5,1.42E+12,-7.9332027,-4.481231,5.2808685,10.53113045,-0.758870932,-8.759188158,-0.451865313,13.11511305
38:24.5,1.42E+12,-5.983507,-10.360854,10.476713,15.90318103,-0.712898532,-9.083141488,-0.270068373,13.22864265
38:24.5,1.42E+12,-3.6796482,-18.037043,14.024785,23.14237078,-0.666246544,-9.518490202,-0.030641269,13.54414079
38:24.5,1.42E+12,2.072141,-19.371067,2.1285737,19.59752104,-0.656654492,-9.884703644,0.101668593,13.83853495
38:24.6,1.42E+12,8.04996,-16.467855,-8.896001,20.37476228,-0.641727532,-9.920353504,0.214321333,13.80781384
38:24.6,1.42E+12,8.328082,-17.655186,-1.9314336,19.61614076,-0.560551332,-9.940818944,0.487266741,13.73643707
38:24.7,1.42E+12,6.0896363,-19.009869,-2.9916787,20.18437344,-0.46646,-10.29317722,0.288926191,13.9961573
38:24.7,1.42E+12,4.406387,-15.570321,-9.718989,18.87617254,-0.3426794,-10.52149142,-0.120433549,14.1404602
38:24.7,1.42E+12,4.1017704,-11.739488,-10.991942,16.59707468,-0.004921772,-10.41986776,-0.502196669,14.01986737
38:24.7,1.42E+12,2.9786558,-8.457562,-7.828121,11.90303422,0.176695554,-10.34499344,-0.734513555,13.97476379
38:24.7,1.42E+12,1.7688717,-4.731062,-9.4494,10.71461689,0.346526388,-10.3800745,-1.018892189,14.01377885
38:24.7,1.42E+12,1.9359242,-2.3269112,-2.958448,4.232579924,0.528676602,-10.28780637,-1.279407449,13.81491643
38:24.7,1.42E+12,2.2357507,0.36928207,1.8428178,2.92077522,0.665279536,-9.943522308,-1.515493493,13.43011473
38:24.7,1.42E+12,2.7488837,1.0416838,-0.7393126,3.031179615,0.75940081,-9.538509552,-1.634094865,13.09085914
38:24.8,1.42E+12,3.489244,-1.088237,-2.174079,4.252728884,0.727588962,-9.213912552,-1.442460365,12.74513776
38:24.8,1.42E+12,2.4816892,-3.7585342,-0.8393047,4.581461884,0.644317126,-8.919639496,-1.378282829,12.43588336
38:24.8,1.42E+12,2.3770568,-8.439001,1.7995578,8.95017012,0.585291872,-8.720703176,-1.282508993,12.22740042
38:24.8,1.42E+12,5.8824673,-16.607365,4.3911185,18.15736532,0.608134366,-8.735929516,-1.071783203,12.23765612
38:24.8,1.42E+12,0.09265732,-19.176622,-2.967579,19.40510092,0.523183027,-8.896003656,-0.926887523,12.31082072
38:24.9,1.42E+12,-5.0796866,-19.526146,-3.7007542,20.5126589,0.332743051,-9.107346176,-0.862940507,12.47810721
38:24.9,1.42E+12,-5.8945923,-18.956131,-3.4045203,20.14129786,0.161918279,-9.378621068,-0.806427033,12.70784604
38:25.0,1.42E+12,-4.9090414,-19.256855,-2.9042606,20.08382139,0.017938691,-9.710924038,-0.706934931,12.93712879
38:25.0,1.42E+12,-3.0322444,-19.537073,3.7468584,20.12288934,-0.128687397,-10.08995685,-0.589728663,13.24306437
38:25.0,1.42E+12,-0.20222946,-18.055304,2.4899223,18.22730403,-0.194556422,-10.46085556,-0.578666665,13.53399884
38:25.0,1.42E+12,2.870431,-11.981684,0.85921323,12.35064261,-0.175264538,-10.70212983,-0.587067196,13.73507523
38:25.0,1.42E+12,1.2142749,-9.119636,0.57794815,9.218256254,-0.175866288,-10.8391968,-0.551285603,13.86233926
38:25.0,1.42E+12,0.31030473,-6.0706263,2.6042843,6.612948617,-0.232583344,-10.76203227,-0.492332199,13.78617718
38:25.0,1.42E+12,-2.364034,-1.9360739,1.8407222,3.567253442,-0.421319864,-10.44061765,-0.499753767,13.46808087
38:25.0,1.42E+12,-4.1468267,1.617686,-0.5968089,4.491019989,-0.497020445,-10.02092343,-0.439060979,13.16374395
38:25.1,1.42E+12,-5.267696,3.6332445,-1.8073416,6.649478957,-0.503903133,-9.557217699,-0.417430959,12.88936676
38:25.1,1.42E+12,-5.540728,4.498296,-1.6283139,7.320228127,-0.501597933,-9.076010379,-0.368282169,12.62038805
38:25.1,1.42E+12,-4.289929,3.4992733,-0.0875679,5.536792627,-0.554426075,-8.616073813,-0.38225112,12.33959078
38:25.1,1.42E+12,-1.3633648,-2.663112,-2.331851,3.79321212,-0.600599056,-8.277941973,-0.514240646,12.01441662
38:25.1,1.42E+12,3.4367034,-11.375444,-8.945996,14.8742227,-0.594551632,-8.180428733,-0.748814834,11.97624293
38:25.2,1.42E+12,4.8479686,-17.197588,-15.9524765,23.95289834,-0.543471852,-8.288162713,-1.09053921,12.21360289
38:25.2,1.42E+12,2.879113,-7.4006104,-7.758067,11.10161833,-0.477399248,-8.258500401,-1.308509936,12.24699449
38:25.2,1.42E+12,-1.8402731,3.1674132,14.58043,15.03356413,-0.46999265,-8.113598725,-1.064984346,12.44317826
38:25.2,1.42E+12,-4.0797663,-5.4167857,9.822574,11.93603872,-0.447126202,-8.229233261,-0.877684834,12.57678341
38:25.3,1.42E+12,-15.29684,-17.654438,3.7573366,23.65988321,-0.582133462,-8.646691165,-0.773160194,12.86498552
38:25.3,1.42E+12,-2.6890082,-8.520581,5.955066,10.73749863,-0.454933966,-8.890360445,-0.636218972,12.88367789
38:25.3,1.42E+12,-3.7006044,-6.35249,7.181616,10.27736399,-0.377895162,-9.089446445,-0.52194061,12.91932154
38:25.3,1.42E+12,-3.432063,-14.569353,12.84464,19.7238404,-0.395881758,-9.360733303,-0.291680426,13.25314187
38:25.3,1.42E+12,0.13202545,-17.751286,13.170362,22.10393677,-0.508414741,-9.569022163,0.090118614,13.47428338
38:25.3,1.42E+12,4.0149508,-19.332298,-1.5410454,19.80485791,-0.636425545,-9.605444423,0.377227566,13.35353528
38:25.4,1.42E+12,6.7922754,-16.674126,-9.380992,20.30183474,-0.593147537,-9.742346743,0.426160806,13.43837129
38:25.4,1.42E+12,5.5191727,-17.096996,-4.700226,18.57042444,-0.515872233,-10.06498879,0.321980446,13.77013
38:25.4,1.42E+12,3.7199144,-17.39817,-4.112398,18.26050108,-0.367455865,-10.36275258,0.064830206,13.93889796
38:25.4,1.42E+12,1.4494358,-14.507082,-8.977731,17.1217974,-0.089531809,-10.31903748,-0.272583148,13.83597057
38:25.4,1.42E+12,0.87747526,-9.285641,-10.092463,13.74230334,0.013852196,-10.22320378,-0.536196968,13.81006613
38:25.5,1.42E+12,1.6943266,-6.0050626,-5.2202444,8.13526097,0.161445278,-10.26183845,-0.705078776,13.81874779
38:25.5,1.42E+12,1.7976118,-2.7235863,-6.230344,7.033243695,0.356061568,-10.22668555,-0.935303026,13.74879005
38:25.5,1.42E+12,4.351002,-1.2440629,-5.1524353,6.85758707,0.562751748,-10.04434973,-1.247885992,13.56787817
38:25.5,1.42E+12,3.6812947,-0.43334883,0.744402,3.780721653,0.709970606,-9.692275849,-1.513493652,13.18064519
38:25.5,1.42E+12,1.4991325,-1.1100916,1.366658,2.312456638,0.698510436,-9.327056341,-1.528731966,12.8349439
38:25.6,1.42E+12,0.5357359,-1.9670595,-0.6066884,2.127065313,0.548225954,-9.037040431,-1.362945714,12.46998996
38:25.6,1.42E+12,-0.6990463,-5.6021004,-0.8931926,5.715766584,0.367683388,-8.795978719,-1.342180894,12.19198248
38:25.6,1.42E+12,1.5352075,-15.322437,0.47765672,15.40656008,0.276594812,-8.722230079,-1.272794186,12.09642621
38:25.6,1.42E+12,0.27782226,-19.001936,-5.2868557,19.72565842,0.194023517,-8.790862379,-1.18415152,12.11341593
38:25.6,1.42E+12,-6.6228275,-19.44217,-5.769303,21.33411998,-0.020468441,-8.944916019,-1.07969874,12.20815684
38:25.7,1.42E+12,-4.884792,-19.538868,-3.5058596,20.44308213,-0.177737397,-9.166542139,-0.993253512,12.37895779
38:25.7,1.42E+12,1.695075,-19.575394,4.9301476,20.25773148,-0.179213331,-9.463428779,-0.70566256,12.56982009
38:25.7,1.42E+12,1.3181589,-18.977835,3.1835797,19.28810369,-0.191568637,-9.796447255,-0.582822006,12.87093056
38:25.7,1.42E+12,3.0124855,-14.245726,2.7360106,14.8155841,-0.176033941,-10.08874742,-0.56495815,13.10882674
38:25.7,1.42E+12,1.6613951,-8.686437,2.6427543,9.230307239,-0.197783713,-10.28330983,-0.497316812,13.23280929
38:25.8,1.42E+12,-0.5141808,-4.376,2.5030947,5.067468892,-0.277852209,-10.34906509,-0.403773338,13.24910409
38:25.8,1.42E+12,-4.1546106,-0.001796265,1.5910414,4.448843131,-0.410578205,-10.27393033,-0.355166416,13.24645172
38:25.8,1.42E+12,-7.7404037,2.3896308,-0.045056306,8.101000856,-0.612927415,-10.0573577,-0.392058698,13.22946833
38:25.8,1.42E+12,-8.121811,4.1387434,0.6372249,9.137782358,-0.893012981,-9.64243553,-0.46713657,13.04907667
38:25.8,1.42E+12,-6.8142796,4.6485834,3.9640567,9.151911255,-1.031151719,-9.165931422,-0.328503856,12.84401288
38:25.9,1.42E+12,-2.861749,1.1073972,3.080145,4.347784392,-0.986792967,-8.753260558,-0.192885872,12.52071539
38:25.9,1.42E+12,7.3480697,-9.474547,-11.7632885,16.79690821,-0.721939727,-8.563628878,-0.360061236,12.4538276
38:25.9,1.42E+12,9.679471,-16.867075,-18.485659,26.831138,-0.430169479,-8.515833278,-0.671689204,12.58877393
38:26.0,1.42E+12,-1.9679576,-0.8045769,11.120375,11.32179055,-0.408883743,-8.141183356,-0.524218872,12.41275195
38:26.0,1.42E+12,-6.2237577,-2.4691155,12.96918,14.59559252,-0.529314308,-7.829459586,-0.314633718,12.34011772
38:26.0,1.42E+12,-12.802427,-15.625407,11.207045,23.10093805,-0.842771468,-7.902334046,-0.107677083,12.55512363
38:26.0,1.42E+12,-9.715097,-12.10383,5.9839563,16.63410783,-1.061358906,-7.962017926,0.00044308,12.70344066
38:26.0,1.42E+12,-7.5785904,-14.031521,8.739127,18.18491008,-1.219136809,-8.12123582,0.123139934,12.93487989
38:26.0,1.42E+12,-4.06824,-18.809435,12.545113,22.97227202,-1.253220929,-8.458703042,0.33722775,13.32298026
38:26.0,1.42E+12,1.2790902,-19.476149,0.8879535,19.5382935,-1.144702591,-8.880579742,0.366922998,13.62392573
38:26.1,1.42E+12,8.716973,-18.123413,-13.760585,24.36795881,-0.865009211,-9.315712892,0.12785813,13.97829533
38:26.1,1.42E+12,7.9635897,-18.639389,-4.423601,20.74641726,-0.594922857,-9.778466592,0.071952388,14.24681911
38:26.1,1.42E+12,5.282515,-17.93151,-3.8582268,19.08742858,-0.403473977,-10.20708226,-0.00346079,14.51783183
38:26.1,1.42E+12,2.080823,-13.005405,-8.797206,15.83859896,-0.334590221,-10.41392812,-0.13276789,14.75873957
38:26.1,1.42E+12,1.8024019,-10.719509,-10.246043,14.93780181,-0.367276251,-10.40080942,-0.15876883,14.76001115
38:26.2,1.42E+12,2.1513262,-7.731722,-6.7234187,10.46957919,-0.421209099,-10.2114921,0.025812326,14.49034477
38:26.2,1.42E+12,1.411864,-4.099076,-6.646778,7.935706761,-0.450554079,-10.14546141,0.048038106,14.42702654
38:26.2,1.42E+12,3.8264928,-2.2680836,-8.716973,9.786310267,-0.337218761,-10.25417135,-0.417909954,14.32208146
38:26.2,1.42E+12,6.0673327,-0.18082398,0.025896149,6.070081879,-0.134276781,-10.14945211,-0.613843511,14.20476232
38:26.3,1.42E+12,3.8184097,-0.49442184,3.6329453,5.293675202,0.248028213,-9.806251788,-0.616331337,13.83743816
38:26.3,1.42E+12,1.7431252,-0.89244413,0.89783293,2.154308696,0.336670881,-9.653689051,-0.717475998,13.66577436
38:26.3,1.42E+12,-0.1128653,-5.8674984,-0.554447,5.894716917,0.408425663,-9.643989219,-0.872197258,13.57812142
38:26.3,1.42E+12,2.7402017,-16.4701,0.18830842,16.69755549,0.531870957,-9.682004159,-1.12532389,13.51759572
38:26.3,1.42E+12,-1.9974463,-19.157911,-3.8637652,19.64545818,0.489281522,-9.710136659,-1.466006434,13.46842615
38:26.3,1.42E+12,-7.6020913,-19.5236,-3.1067894,21.18053091,0.25694068,-9.713962699,-1.497321314,13.49593961
38:26.4,1.42E+12,-6.4330225,-19.573298,-2.48618,20.75280376,-0.007565278,-9.771946139,-1.359425074,13.50495899
38:26.4,1.42E+12,0.009729767,-19.580032,3.048411,19.81591677,-0.117754136,-9.821606859,-1.204452334,13.52986884
38:26.4,1.42E+12,1.0443782,-18.930683,2.3864872,19.10907653,-0.17126486,-9.852257119,-1.07447463,13.54684035
38:26.4,1.42E+12,4.1568556,-13.378729,3.8537362,14.5300076,-0.117116464,-9.829690059,-0.817845286,13.49500455
38:26.4,1.42E+12,1.6341518,-9.308693,3.61633,10.11929148,-0.101982933,-9.830151099,-0.543669426,13.42254431
38:26.5,1.42E+12,-1.4385086,-4.981641,3.8649628,6.467147091,-0.164639637,-9.809682667,-0.361965282,13.38918204
38:26.5,1.42E+12,-4.6590614,-0.31105316,3.7112324,5.964633528,-0.293773101,-9.761432004,-0.163133754,13.36780983
38:26.5,1.42E+12,-7.400311,2.8029213,1.640738,8.081645371,-0.528799361,-9.68049232,-0.027270288,13.392291
38:26.5,1.42E+12,-8.394693,5.9031243,0.23740631,10.26518918,-0.770319115,-9.553762858,-0.037410202,13.52198035
38:26.5,1.42E+12,-7.4197707,6.7316513,0.64830184,10.03934369,-0.948697179,-9.396928,-0.051777325,13.67651809
38:26.6,1.42E+12,-4.062552,3.9630089,2.1228855,6.059406831,-1.040662937,-9.278326632,0.002814153,13.75516492
38:26.6,1.42E+12,6.460565,-3.9835162,-8.6611395,11.51619029,-0.897470711,-9.245954948,-0.152544785,13.8711734
38:26.6,1.42E+12,10.842853,-17.03278,-17.922081,26.99785256,-0.711317801,-9.280161808,-0.520539539,14.10299925
38:26.6,1.42E+12,3.7769458,-12.718751,-10.275981,16.78176785,-0.641335331,-9.154498108,-0.620322045,14.04412143
38:26.6,1.42E+12,1.3498929,-3.1552885,-0.93510544,3.557032266,-0.481880923,-8.828760478,-0.523638094,13.68857968
38:26.7,1.42E+12,-2.3381379,3.3900003,12.73357,13.38292927,-0.430947841,-8.370183112,-0.198849502,13.54737662
38:26.7,1.42E+12,-7.7881546,-4.7794113,8.812325,12.69469166,-0.620612433,-8.074263458,-0.121205954,13.39611583
38:26.7,1.42E+12,-13.259577,-17.230669,3.3084202,21.99222546,-0.912167151,-8.039320138,-0.118709144,13.45019826
38:26.7,1.42E+12,-4.532275,-12.604689,-2.4038513,13.60875463,-1.063062361,-8.006499398,-0.221506382,13.42606167
38:26.7,1.42E+12,-6.354436,-7.138805,5.4712725,11.01254814,-1.223378983,-7.975546758,-0.164936018,13.46170649
38:26.8,1.42E+12,-5.2009344,-9.689651,9.9451685,14.82718556,-1.317114055,-8.081819778,-0.016094542,13.65690082
38:26.8,1.42E+12,-3.5569034,-16.08031,14.365327,21.85384523,-1.305159911,-8.403390052,0.23939117,14.00500087
38:26.8,1.42E+12,-0.91070616,-19.104921,6.158344,20.09359582,-1.16856596,-8.833281088,0.363459176,14.24485276
38:26.8,1.42E+12,5.689219,-17.493372,-8.716824,20.35603835,-0.89234536,-9.265923396,0.176378198,14.46921788
38:26.8,1.42E+12,6.958879,-18.382973,-1.248853,19.69566772,-0.616882188,-9.726554524,0.072120004,14.68009301
38:26.9,1.42E+12,5.610782,-19.312689,-2.973267,20.32980934,-0.447431568,-10.13495625,-0.048948236,14.99973351
38:26.9,1.42E+12,5.4220247,-17.510885,-4.5767326,18.89380657,-0.485952468,-10.29568301,0.094782882,15.04167148
38:26.9,1.42E+12,4.600533,-12.123289,-12.814552,18.2305179,-0.587531228,-10.20080729,0.208205022,14.86965908
38:26.9,1.42E+12,4.066294,-10.236314,-11.064691,15.61231111,-0.466846196,-10.38944203,-0.235496298,14.95546949
38:26.9,1.42E+12,2.2391937,-6.172115,-6.125412,8.979402217,-0.297587168,-10.46350202,-0.617388138,14.84314568
38:27.0,1.42E+12,1.8055453,-3.6670742,-4.2435255,5.891938195,-0.005427722,-10.22433536,-0.926399548,14.49896569
38:27.0,1.42E+12,3.216062,-0.95905566,-0.13322297,3.358659094,0.253195458,-10.00143988,-1.048743133,14.23345671
38:27.0,1.42E+12,4.3617797,-0.26584718,2.090403,4.844128567,0.49200286,-9.726126401,-1.181717613,13.96664108
38:27.0,1.42E+12,3.785478,-0.45310774,1.3310322,4.038167534,0.64907722,-9.358999856,-1.405999229,13.58795899
38:27.0,1.42E+12,2.088906,-2.0775297,-2.8812084,4.120803292,0.665273536,-9.01102747,-1.481382467,13.27960919
38:27.1,1.42E+12,0.7887099,-4.932543,-1.853296,5.327921716,0.506708274,-8.74721007,-1.243236687,12.89880845
38:27.1,1.42E+12,2.2635927,-11.699222,0.45205992,11.92476438,0.392708334,-8.60840673,-1.145723469,12.72237539
38:27.1,1.42E+12,7.0648584,-18.47533,5.045857,20.41349347,0.428355202,-8.61928313,-0.967641793,12.74889669
38:27.1,1.42E+12,-0.54082537,-19.430794,-2.3821464,19.58373991,0.375922235,-8.74779091,-0.839340601,12.8237995
38:27.1,1.42E+12,-1.3172607,-19.560722,-1.8519489,19.69230143,0.313528983,-8.92461517,-0.671458719,12.9188895
38:27.2,1.42E+12,-3.4738262,-19.578386,-4.0320153,20.28885936,0.201025935,-9.16154845,-0.617630651,13.1152751
38:27.2,1.42E+12,-2.588118,-19.580782,0.67868865,19.76274264,0.121026295,-9.47118257,-0.471121318,13.35181582
38:27.2,1.42E+12,1.2003539,-19.581081,9.076226,21.61567628,0.068503517,-9.817442518,-0.115257338,13.58840314
38:27.2,1.42E+12,4.4530897,-16.72023,0.16795075,17.30388126,0.036218657,-10.14823064,-0.112416246,13.81307913
38:27.3,1.42E+12,3.494633,-12.102483,-0.31928605,12.60097211,0.029743123,-10.38039186,-0.191460873,13.95922506
38:27.3,1.42E+12,0.23456222,-8.68,3.1229558,9.227690522,-0.000428137,-10.53614298,-0.146958415,14.1006927
38:27.3,1.42E+12,-0.74380326,-3.8983433,1.8510507,4.37912234,-0.013046896,-10.49675988,-0.098848461,14.07038081
38:27.3,1.42E+12,-4.7586045,0.90022796,-0.14400055,4.845148432,-0.16302302,-10.14935332,-0.105494641,13.83333267
38:27.3,1.42E+12,-8.870554,4.2299037,-0.64635587,9.848684658,-0.300485174,-9.681597024,-0.041146454,13.6373972
38:27.3,1.42E+12,-9.652079,5.76107,1.5266752,11.34386591,-0.341484928,-9.175903624,0.051522838,13.4406639
38:27.4,1.42E+12,-6.1204724,5.7002964,4.0429425,9.289722574,-0.335233926,-8.670431736,0.182105288,13.21140227
38:27.4,1.42E+12,-1.4444962,1.7612375,1.1154803,2.536301067,-0.364318445,-8.243606346,0.143446674,12.86580996
38:27.4,1.42E+12,2.6695487,-5.85732,-5.7823257,8.652743978,-0.331815035,-7.982139086,-0.019929584,12.65668331
38:27.4,1.42E+12,5.880222,-12.002192,-14.985936,20.08003738,-0.297347707,-7.954608346,-0.396723028,12.7676839
38:27.4,1.42E+12,4.6407995,-10.316996,-11.970307,16.47014499,-0.237214753,-7.974774406,-0.708455768,12.89470097
38:27.5,1.42E+12,0.75203615,-1.5820601,6.1328964,6.378157319,-0.193403858,-7.906782788,-0.663097096,12.89292118
38:27.5,1.42E+12,-3.1879206,-3.3269815,10.206526,11.1984292,-0.163981042,-7.967101354,-0.533191224,12.99759709
38:27.5,1.42E+12,-10.292297,-16.270266,3.819607,19.62759106,-0.221820762,-8.3485651,-0.489613844,13.22851601
38:27.6,1.42E+12,-5.047803,-14.676829,-0.13037887,15.52116694,-0.154882962,-8.760164166,-0.496969548,13.33363556
38:27.6,1.42E+12,-4.377946,-5.9177938,3.3673975,8.094816895,-0.094046468,-9.013153068,-0.442587635,13.29474503
38:27.6,1.42E+12,-6.2161236,-6.524632,6.127208,10.89741681,-0.1371179,-9.222905886,-0.362501185,13.39150523
38:27.6,1.42E+12,-4.4725494,-15.066619,12.817396,20.28034384,-0.355780188,-9.444567942,0.067069525,13.5667883
38:27.6,1.42E+12,-2.3176305,-18.950144,9.119486,21.15760841,-0.618989858,-9.482915222,0.607900865,13.44998341
38:27.6,1.42E+12,3.7943096,-19.284697,-4.0311174,20.0635548,-0.618642582,-9.614234142,0.732798137,13.51561915
38:27.6,1.42E+12,8.538693,-16.60033,-3.5202296,18.99663788,-0.47486658,-9.883134972,0.681095654,13.82441126
38:27.7,1.42E+12,8.609945,-18.305883,-0.21375549,20.23072408,-0.255904922,-10.31705264,0.422149144,13.96136716
38:27.7,1.42E+12,5.7236476,-19.104172,-3.3530273,20.2230641,0.014331122,-10.60354785,0.178842098,14.11193461
38:27.7,1.42E+12,3.547024,-16.764389,-6.1481647,18.20511046,0.350463142,-10.59422225,-0.0102896,14.03619231
38:27.7,1.42E+12,1.7071998,-12.354858,-14.000087,18.74991956,0.475252638,-10.58922563,-0.242214314,14.13901561
38:27.7,1.42E+12,2.0712428,-9.572444,-11.107801,14.80894912,0.643766214,-10.63789841,-0.573795784,14.21494363
38:27.8,1.42E+12,1.0060579,-4.7268705,-5.9049206,7.630435408,0.76790606,-10.5386428,-0.890797566,14.07100862
38:27.8,1.42E+12,2.395319,-3.0204191,-5.537435,6.747123167,0.886950508,-10.27744498,-1.288852806,13.76887418
38:27.8,1.42E+12,4.368067,-0.42272094,1.0502161,4.512389186,0.992525971,-9.903800983,-1.391015364,13.45725005
38:27.8,1.42E+12,5.1689014,0.6171666,1.6257691,5.453582443,0.982119619,-9.541590211,-1.184163502,13.15920093
38:27.9,1.42E+12,3.1025982,-0.7801776,0.1607657,3.203223109,0.904994003,-9.189534303,-1.155971128,12.82935204
38:27.9,1.42E+12,1.1852353,-3.2578254,-0.9156459,3.585612426,0.816483069,-8.868437031,-1.114818706,12.4944681
38:27.9,1.42E+12,2.4460633,-10.645412,-0.282762,10.92648053,0.756963841,-8.731127571,-1.028939294,12.33512158
38:27.9,1.42E+12,4.3280997,-17.700243,0.84768724,18.24142601,0.751515175,-8.842666651,-0.755694509,12.33533974
38:27.9,1.42E+12,-1.4985337,-19.310293,-3.30857,19.64890975,0.640218621,-9.024146231,-0.600572089,12.41607172
38:27.9,1.42E+12,-4.003874,-19.544258,-3.2380664,20.21123702,0.515357267,-9.291589091,-0.542825177,12.64070841
38:28.0,1.42E+12,-5.377268,-19.576141,-5.900729,21.14140275,0.371701001,-9.609770427,-0.575969247,12.9456977
38:28.0,1.42E+12,-0.40520737,-19.580482,3.4423914,19.88490701,0.299275613,-9.982198954,-0.504456959,13.27622266
38:28.0,1.42E+12,2.9244685,-19.581081,5.8336687,20.63983865,0.270529389,-10.36850363,-0.429591645,13.59213686
38:28.0,1.42E+12,5.460046,-15.16182,1.1514057,16.15607078,0.304020749,-10.66267788,-0.433184175,13.83449493
38:28.1,1.42E+12,2.9961693,-11.556269,1.1593392,11.99451754,0.322166015,-10.85225266,-0.352373223,13.99196921
38:28.1,1.42E+12,0.5947133,-9.3289,4.8364425,10.52488647,0.318286083,-10.9401798,-0.218578453,14.09590851
38:28.1,1.42E+12,-1.2760963,-3.3645535,3.19795,4.814096616,0.247492303,-10.77348643,-0.163660652,13.95369515
38:28.1,1.42E+12,-4.865183,0.86475176,0.5008585,4.966755527,0.008891475,-10.3866848,-0.254560622,13.64476039
38:28.1,1.42E+12,-8.145162,3.7657192,-2.0676503,9.208663468,-0.143195257,-9.922754532,-0.2482707,13.43725887
38:28.1,1.42E+12,-9.1307125,5.875432,-0.68273026,10.87918805,-0.299464293,-9.414031452,-0.224886327,13.2609966
38:28.2,1.42E+12,-7.1206923,6.286028,3.2886612,10.05155209,-0.372401615,-8.896743172,-0.078472797,13.05625045
38:28.2,1.42E+12,-2.105821,1.4191988,2.8894415,3.846749212,-0.362755675,-8.476743556,-0.03425774,12.73793058
38:28.2,1.42E+12,3.9356158,-4.713548,-3.9736369,7.314123098,-0.308050437,-8.179392896,-0.295254998,12.45189952
38:28.2,1.42E+12,8.201295,-15.664326,-13.792019,22.4243648,-0.233086331,-8.158274816,-0.574454393,12.55430919
38:28.2,1.42E+12,4.9048505,-13.738581,-14.817238,20.79318899,-0.204881981,-8.190996776,-0.864413432,12.71815353
38:28.3,1.42E+12,1.5603552,-4.2748103,-0.05388794,4.551001578,-0.178366122,-8.102892982,-0.927950307,12.62461975
38:28.3,1.42E+12,-4.613406,-8.916957,9.493258,13.81729295,-0.255758176,-8.203265256,-0.775106161,12.81338316
38:28.3,1.42E+12,-10.275981,-18.049616,9.265732,22.74287169,-0.366105706,-8.582262136,-0.58691151,13.17133763
38:28.3,1.42E+12,-7.1052747,-8.366102,5.930218,12.47573953,-0.33080012,-8.83418225,-0.455380032,13.22387872
38:28.4,1.42E+12,-8.407566,-4.6119094,5.533094,11.07122412,-0.30590986,-9.041641838,-0.375251656,13.21842589
38:28.4,1.42E+12,-6.954388,-11.693383,9.759555,16.74358481,-0.322588172,-9.389515426,-0.260919406,13.36750313
38:28.4,1.42E+12,-1.8467097,-18.322048,14.42625,23.39282943,-0.330632442,-9.791181136,0.005295988,13.7846337
38:28.4,1.42E+12,1.786984,-19.409838,6.5675926,20.56862649,-0.348283736,-10.0622315,0.252294354,14.02295135
38:28.4,1.42E+12,6.773115,-17.415384,-10.149644,21.26466459,-0.330425876,-10.17049534,0.349020194,14.0466439
38:28.4,1.42E+12,8.609796,-17.203125,-2.9195287,19.45763975,-0.251045946,-10.30821792,0.53003576,14.10639379
38:28.5,1.42E+12,6.5949855,-18.788778,-3.031945,20.14211267,-0.134186959,-10.65235227,0.346738932,14.3816729
38:28.5,1.42E+12,4.248615,-17.237104,-5.288353,18.52390783,0.014543753,-10.93055472,0.036841352,14.52818247
38:28.6,1.42E+12,2.6497898,-12.039314,-10.873837,16.4379682,0.273385489,-10.84593568,-0.257027528,14.46439001
38:28.6,1.42E+12,1.8247055,-9.878258,-10.984907,14.88548666,0.410835659,-10.74996426,-0.474118091,14.45167641
38:28.6,1.42E+12,0.6236032,-5.4679794,-5.2206936,7.58573143,0.510866643,-10.74096798,-0.645879913,14.4414947
38:28.6,1.42E+12,1.6045134,-3.1340327,-3.453169,4.931632626,0.667279383,-10.67315599,-0.837487453,14.32217901
38:28.6,1.42E+12,3.7458105,-1.5856526,-1.7220191,4.41709636,0.831646581,-10.40353666,-1.128275755,14.00491406
38:28.6,1.42E+12,5.267696,-0.25417146,-0.19714004,5.27750779,0.983353111,-10.02961721,-1.314608276,13.68731205
38:28.6,1.42E+12,4.7394443,-0.73407346,-0.04790039,4.796195426,1.002255805,-9.65860474,-1.234943936,13.38196486
38:28.6,1.42E+12,1.1307486,-2.0948937,-1.2657678,2.696171384,0.854096917,-9.368496014,-1.1898547,13.05595553
38:28.7,1.42E+12,-0.57390654,-5.966293,-0.5177733,6.016154093,0.670419886,-9.121704214,-1.195935056,12.77166413
38:28.7,1.42E+12,2.3710694,-14.461128,0.63632673,14.66803003,0.603368322,-9.028843334,-1.116147975,12.66056345
38:28.7,1.42E+12,1.6804056,-18.88473,-2.6503885,19.1437026,0.566035954,-9.071250154,-1.046192451,12.6793353
38:28.7,1.42E+12,-3.1903157,-19.486477,-4.365971,20.22282381,0.468085644,-9.213882534,-0.853510131,12.70879338
38:28.7,1.42E+12,-4.4617715,-19.568207,-4.437073,20.55504189,0.337425358,-9.413797794,-0.720095571,12.82371524
38:28.8,1.42E+12,1.3696518,-19.579433,4.5508366,20.14795911,0.344697236,-9.710849044,-0.510980427,13.07406571
38:28.8,1.42E+12,3.0011091,-19.58093,4.1757164,20.24490264,0.356813038,-10.04205926,-0.316717399,13.3440213
38:28.8,1.42E+12,4.4530897,-16.029566,3.0611343,16.91589599,0.358513492,-10.35419616,-0.276499035,13.59209144
38:28.9,1.42E+12,3.6395316,-12.030782,1.6227754,12.67356721,0.327926096,-10.60715514,-0.276558909,13.73649113
38:28.9,1.42E+12,1.0487192,-8.8895645,3.029999,9.450135602,0.286848516,-10.76934287,-0.219174243,13.86142938
38:28.9,1.42E+12,-0.7084767,-4.22691,3.3905993,5.464876119,0.248974276,-10.78872457,-0.133049339,13.89901466
38:28.9,1.42E+12,-4.903204,-0.17154327,1.5783179,5.153826147,0.10198893,-10.57924719,-0.095827741,13.78356157
38:28.9,1.42E+12,-8.133187,2.6815238,-1.9832258,8.790476963,-0.147236804,-10.17161185,-0.152446002,13.59454259
38:29.0,1.42E+12,-9.943522,5.305268,-1.4606625,11.36455161,-0.31613657,-9.679300635,-0.115487852,13.42885542
38:29.0,1.42E+12,-9.191936,5.623057,2.0386107,10.96660344,-0.41989781,-9.175954335,-0.00995431,13.24396275
38:29.0,1.42E+12,-3.3456926,1.3108242,1.9016455,4.065485785,-0.379266302,-8.758215031,0.14609318,12.90244441
38:29.0,1.42E+12,4.9217653,-5.3962784,-6.131699,9.53631621,-0.272726849,-8.474530959,-0.045388628,12.6954726
38:29.0,1.42E+12,8.572972,-16.15351,-16.3258,24.51455649,-0.159756779,-8.405979539,-0.488578002,12.77296695
38:29.0,1.42E+12,5.4660335,-13.470039,-15.583644,21.31125133,-0.159637029,-8.372143919,-0.823278996,12.87607056
38:29.0,1.42E+12,-0.43035507,-3.7256026,10.714569,11.3519738,-0.228167516,-8.215530591,-0.6321744,12.86321969
38:29.1,1.42E+12,-5.449418,-14.985786,8.355474,18.00232997,-0.349050142,-8.328668311,-0.56179377,13.01276856
38:29.1,1.42E+12,-7.941286,-16.214882,8.591534,19.99502133,-0.482353936,-8.585674881,-0.45392209,13.31638705
38:29.1,1.42E+12,-7.558083,-6.387068,6.064489,11.60591587,-0.536211936,-8.730711276,-0.34264948,13.44917026
38:29.1,1.42E+12,-10.914553,-4.000431,5.0287924,12.66568863,-0.591599756,-8.88603428,-0.200720626,13.51831076
38:29.1,1.42E+12,-7.7520795,-13.925841,10.04561,18.83980001,-0.564027096,-9.28205974,0.013846179,13.677523
38:29.2,1.42E+12,-2.8656409,-18.81183,12.827425,22.94863128,-0.478926068,-9.7840169,0.204621455,13.93546459
38:29.2,1.42E+12,5.1687517,-19.476448,-5.7574773,20.9570171,-0.333434614,-10.20192984,0.031683079,14.27766995
38:29.2,1.42E+12,11.689192,-17.564325,-10.734926,23.67237543,-0.17836309,-10.45894538,-0.103542703,14.60483499
38:29.2,1.42E+12,10.746003,-16.277302,-3.121908,19.75280867,-0.12746893,-10.4712049,0.109859517,14.55140387
38:29.3,1.42E+12,4.897665,-14.764996,-7.901319,17.44772396,-0.12761264,-10.4917332,0.248177897,14.48449457
38:29.3,1.42E+12,0.7964937,-11.588302,-8.860075,14.60904085,-0.14288987,-10.63800303,0.072054156,14.68565535
38:29.3,1.42E+12,0.3198848,-7.6957965,-6.7907786,10.26850934,-0.044224054,-10.61357982,-0.253626576,14.61467968
38:29.3,1.42E+12,-0.51268387,-2.9370425,-5.968239,6.671502092,0.151041888,-10.31132835,-0.558305996,14.29325229
38:29.3,1.42E+12,-0.9340576,0.7345226,-2.2435346,2.538786039,0.27446623,-10.12931586,-0.721781048,14.09451322
38:29.3,1.42E+12,-0.5266049,1.3307327,-0.12064911,1.436216713,0.432085452,-10.01046302,-0.83485591,13.90181307
38:29.4,1.42E+12,1.2783417,1.0340496,-2.1215382,2.684090239,0.596740046,-9.755914364,-1.072477774,13.62062318
38:29.4,1.42E+12,2.333198,-1.2969031,-3.4010775,4.323551633,0.6803382,-9.415411466,-1.429024324,13.23923762
38:29.4,1.42E+12,3.765869,-7.2875953,-2.4071443,8.548985803,0.7199159,-9.172966612,-1.608519062,12.99884481
38:29.4,1.42E+12,6.0673327,-17.558636,-1.6664845,18.65195418,0.705800254,-9.175831652,-1.438855872,12.9465906
38:29.4,1.42E+12,-0.3266208,-19.306103,-6.3929057,20.33965431,0.527071918,-9.217891212,-1.508323412,12.96423089
38:29.5,1.42E+12,-4.4668612,-19.176472,-4.75127,20.25498689,0.305834984,-9.225645092,-1.542709912,12.96648838
38:29.5,1.42E+12,-3.8440063,-19.526146,3.5419345,20.21366028,0.143982558,-9.271425932,-1.366104162,13.00028343
38:29.6,1.42E+12,-1.2629237,-16.608263,3.8431082,17.09382511,0.065728288,-9.362804912,-1.071765258,13.01340057
38:29.6,1.42E+12,4.6407995,-12.542418,-1.2995975,13.43645128,0.122050168,-9.416088112,-0.878059068,12.98441986
38:29.6,1.42E+12,3.8761895,-9.680968,0.48828462,10.43955978,0.187101894,-9.500347884,-0.763879504,13.04149642
38:29.6,1.42E+12,-2.0606148,-4.445156,3.667224,6.119973618,0.11379933,-9.52657035,-0.621471644,13.06526324
38:29.6,1.42E+12,-4.903204,-1.4660513,4.2926235,6.679620677,-0.05918096,-9.524178324,-0.501178792,13.11051373
38:29.6,1.42E+12,-6.57373,1.6182847,2.6301806,7.262962307,-0.29600948,-9.486729201,-0.444632379,13.15022282
38:29.6,1.42E+12,-7.97317,4.8168335,0.44682083,9.325930177,-0.550261766,-9.375711061,-0.434737955,13.24081752
38:29.6,1.42E+12,-7.135661,5.6693106,-0.8288264,9.151267332,-0.715589958,-9.220426975,-0.425999127,13.36991944
38:29.7,1.42E+12,-3.299888,3.6501594,-2.3393354,5.448432304,-0.770109587,-9.028097927,-0.462430369,13.358565
38:29.7,1.42E+12,2.7524762,-4.706513,-10.4743185,11.80841809,-0.762481451,-8.833005627,-0.684643273,13.30137276
38:29.7,1.42E+12,9.042846,-16.842825,-18.30693,26.46880246,-0.615232643,-8.792167527,-0.997774103,13.44787476
38:29.7,1.42E+12,3.2476466,-18.699715,-0.6408174,18.99045014,-0.486473397,-8.776432287,-0.923271031,13.42322728
38:29.7,1.42E+12,-0.63587767,-18.603464,16.8304,25.09493131,-0.40995552,-8.757137427,-0.497921571,13.51402507
38:29.8,1.42E+12,-5.4678297,-11.498638,12.481645,17.82995511,-0.54670515,-8.595521527,-0.339305403,13.46766499
38:29.8,1.42E+12,-10.300081,-2.0778291,9.241034,13.99306084,-0.812728952,-8.245459509,-0.237999051,13.34262816
38:29.8,1.42E+12,-11.809841,-4.6216393,6.6647406,14.32657187,-1.137987566,-8.017300975,-0.165926925,13.29084167
38:29.9,1.42E+12,-11.272908,-13.505964,7.202722,19.00970075,-1.436236358,-8.046804615,-0.054327993,13.41756435
38:29.9,1.42E+12,-7.911498,-18.754799,9.096883,22.29546067,-1.615440702,-8.244109305,0.067009687,13.67447085
38:29.9,1.42E+12,1.2841796,-19.333345,2.4411237,19.52911752,-1.575587576,-8.546238005,0.048020175,13.95575567
38:29.9,1.42E+12,7.658524,-13.783338,-4.4376717,16.38066929,-1.324353016,-8.8184739,-0.072299617,14.18029254
38:29.9,1.42E+12,9.78575,-15.139069,-1.1244617,18.0614708,-0.965974276,-9.174885756,-0.055124335,14.36571241
38:29.9,1.42E+12,7.5312886,-15.732285,-3.1784904,17.72929498,-0.616478064,-9.595636816,-0.089480893,14.49300728
38:29.9,1.42E+12,7.615713,-14.340179,-8.771609,18.45483521,-0.280325084,-9.994901536,-0.305685287,14.64277192
38:30.0,1.42E+12,7.474706,-10.807675,-5.5015097,14.24583019,-0.063917112,-10.23727152,-0.453748391,14.84637881
38:30.0,1.42E+12,3.7751496,-7.806716,-7.230564,11.29059896,-0.086849426,-10.28548027,-0.475725691,14.88146446
38:30.0,1.42E+12,2.819387,-4.918921,-9.941726,11.44476486,-0.201921126,-10.06078849,-0.348044211,14.62006863
38:30.0,1.42E+12,3.600463,-2.9142897,-6.979536,8.376773904,-0.239232536,-9.849673506,-0.175962051,14.36137908
38:30.0,1.42E+12,2.8104057,-1.9270926,-0.5071454,3.44517961,-0.174417321,-9.813703306,-0.400396339,14.2032432
38:30.1,1.42E+12,-0.0411644,-1.0452763,0.14115646,1.05556724,-0.066252249,-9.534893112,-0.56468269,13.86430794
38:30.1,1.42E+12,-0.7731422,-1.520987,-3.1424153,3.575741075,0.077110627,-9.241015212,-0.799361676,13.53592234
38:30.1,1.42E+12,-1.9342777,-4.522096,-4.13081,6.422956773,0.189586733,-9.203715772,-1.003267656,13.43226315
38:30.1,1.42E+12,-0.599653,-13.432318,0.030536499,13.44573103,0.395884733,-9.392353512,-1.103232774,13.447864
38:30.2,1.42E+12,1.1885284,-18.74477,-5.84265,19.67016932,0.574696891,-9.488732092,-1.420997974,13.46447139
38:30.2,1.42E+12,-1.4757811,-19.43723,-4.321214,19.96639002,0.602494087,-9.501240092,-1.763970754,13.40482656
38:30.2,1.42E+12,0.12723541,-19.56162,6.8555937,20.72853904,0.501663761,-9.502943532,-1.511709334,13.400257
38:30.2,1.42E+12,2.663561,-17.208963,-0.30207184,17.41649253,0.321151141,-9.495836292,-1.303052251,13.27513934
38:30.2,1.42E+12,4.3457627,-15.06617,0.122595064,15.68088523,0.193146335,-9.471613652,-1.23816219,13.19370087
38:30.2,1.42E+12,1.2281959,-10.370734,3.8468504,11.12918896,0.119756953,-9.383728412,-1.003198802,13.06733017
38:30.3,1.42E+12,-2.3447242,-4.9740067,3.8809795,6.730562837,0.056932595,-9.251442506,-0.748377712,12.90976061
38:30.3,1.42E+12,-3.940855,-0.24519013,2.6454487,4.752773417,-0.028282201,-9.102430379,-0.559653166,12.7994459
38:30.3,1.42E+12,-7.5404196,4.354894,-0.2562671,8.711412189,-0.168836915,-8.956591649,-0.445413728,12.8402441
38:30.3,1.42E+12,-8.427625,6.051915,-2.2532644,10.617332,-0.318708263,-8.850243801,-0.445608324,13.00181502
38:30.3,1.42E+12,-5.0208592,4.7172904,-1.9007474,7.146656316,-0.408593349,-8.782512647,-0.481210289,13.11602381
38:30.4,1.42E+12,-1.995201,1.2135265,-0.46074188,2.380284999,-0.474064203,-8.778923109,-0.447994363,13.1099477
38:30.4,1.42E+12,2.472708,-3.9438486,-4.934339,6.783504109,-0.471274003,-8.831862019,-0.478659593,13.15914675
38:30.4,1.42E+12,7.629335,-10.188413,-15.458803,20.02461241,-0.394004683,-8.889878373,-0.739692767,13.38865929
38:30.4,1.42E+12,0.945434,-6.2089386,-4.915478,7.975380114,-0.496442657,-8.662884425,-0.804672637,13.1751278
38:30.5,1.42E+12,-6.585256,-10.203382,11.925401,17.02027584,-0.621615361,-8.480830005,-0.438306503,13.10874024
38:30.5,1.42E+12,-8.85768,-18.241516,8.525222,21.99751829,-0.709431737,-8.462130885,-0.172776663,13.14359086
38:30.5,1.42E+12,-4.485722,-13.107193,0.6905141,13.87072528,-0.722266051,-8.333751825,-0.229805071,13.01673216
38:30.5,1.42E+12,-4.093837,-6.379883,4.334536,8.732159573,-0.778884317,-8.129184225,-0.219976515,12.84949885
38:30.5,1.42E+12,-3.9149587,-10.13692,8.679252,13.90731692,-0.949999481,-8.081074265,-0.020399525,12.85891617
38:30.5,1.42E+12,-0.02454895,-17.719402,12.108021,21.46117384,-1.02801425,-8.241842945,0.211995203,13.07934845
38:30.6,1.42E+12,5.683082,-19.327957,-0.08008347,20.14630875,-0.873140314,-8.539498965,0.137049053,13.35987515
38:30.6,1.42E+12,9.050778,-17.050592,-1.6030165,19.37031058,-0.594060674,-8.851189779,0.019136253,13.61368895
38:30.6,1.42E+12,9.77138,-16.644487,3.0466146,19.53972045,-0.267158474,-9.216445213,0.027464933,13.85922411
38:30.6,1.42E+12,7.8953314,-18.604063,-0.91609496,20.23083409,0.050211554,-9.684863143,0.000206617,14.07732219
38:30.6,1.42E+12,7.6351724,-19.051632,-3.5717225,20.83309245,0.345628222,-10.17928199,-0.054651305,14.31095869
38:30.7,1.42E+12,6.0228753,-15.369888,-11.178454,19.93655732,0.532083488,-10.55968294,-0.231433677,14.60072119
38:30.7,1.42E+12,3.4245787,-13.129498,-14.757661,20.04744411,0.545525538,-10.72814264,-0.317100527,14.76550171
38:30.7,1.42E+12,0.53843033,-9.979597,-8.534203,13.1421035,0.375437224,-10.59087808,-0.121645987,14.49896773
38:30.7,1.42E+12,2.0501368,-5.2653008,-9.969119,11.45904826,0.351487028,-10.3221898,-0.308212019,14.34833969
38:30.7,1.42E+12,4.40953,-2.0381615,-4.017945,6.304120807,0.452395182,-9.990883749,-0.725178919,13.97252348
38:30.8,1.42E+12,6.382727,0.26734406,2.4565415,6.844360667,0.689406316,-9.755564107,-0.925680989,13.7528116
38:30.8,1.42E+12,2.9103978,-1.0585986,-1.0716215,3.277105276,0.953615892,-9.735179497,-1.131934099,13.53849248
38:30.8,1.42E+12,0.53049684,-2.6436524,-1.848955,3.269397422,1.200422649,-9.695619759,-1.302208011,13.317349
38:30.8,1.42E+12,0.22378464,-8.066127,-2.7782226,8.53410834,1.430356501,-9.586823019,-1.501826903,13.10783715
38:30.8,1.42E+12,2.5512946,-16.901503,-2.9151878,17.33978742,1.639612353,-9.549757099,-1.742068319,13.00872368
38:30.9,1.42E+12,-2.2158422,-19.216589,-7.1022806,20.6065436,1.569611917,-9.547421979,-1.932936405,13.0302722
38:30.9,1.42E+12,-2.4998016,-19.531534,-5.669011,20.49066895,1.366445405,-9.662385899,-1.957563191,13.1124722
38:30.9,1.42E+12,1.1421249,-19.574345,8.95363,21.55520637,1.193572903,-9.751091419,-1.756001357,13.18234691
38:30.9,1.42E+12,2.5402176,-17.315243,5.7353234,18.41641333,1.093751483,-9.782750579,-1.577725081,13.19608928
38:30.9,1.42E+12,5.040618,-12.439133,3.2272887,13.80417516,1.042249583,-9.744729659,-1.337747127,13.10307607
38:31.0,1.42E+12,4.995412,-8.417746,3.0192215,10.24345094,0.992663703,-9.696931079,-1.167332503,13.02302849
38:31.0,1.42E+12,1.493594,-4.2078996,3.0527518,5.408931099,0.947032591,-9.624954751,-0.961666187,12.90539513
38:31.0,1.42E+12,-3.4578094,0.23935227,1.9041902,3.954702982,0.821488663,-9.521789286,-0.724747863,12.75559389
38:31.0,1.42E+12,-8.196356,3.6390824,-0.6664142,8.992623659,0.585552283,-9.390721844,-0.598485427,12.76791089
38:31.0,1.42E+12,-10.039622,5.926027,-3.068469,12.05517764,0.328551729,-9.233659452,-0.649711899,12.94011085
38:31.1,1.42E+12,-8.064031,7.190148,-1.9371217,10.97630469,0.168094397,-9.068950966,-0.691277462,13.1385256
