time,time_milisec,ax,ay,az,resultant,MA_x,MA_y,MA_z,MA_R
41:37.0,1.42E+12,-2.0362158,-8.274942,-2.76505,8.959148475,0,0,0,0
41:37.0,1.42E+12,-2.2574556,-8.1126795,-0.14160553,8.422097517,0,0,0,0
41:37.0,1.42E+12,-2.3754103,-7.3313046,1.3988411,7.832455404,0,0,0,0
41:37.0,1.42E+12,-1.0611434,-7.6790314,-0.2802173,7.75706583,0,0,0,0
41:37.0,1.42E+12,-0.98480207,-9.818083,-1.9161654,10.05168039,0,0,0,0
41:37.0,1.42E+12,-1.4675483,-10.789264,-1.1729608,10.95160959,0,0,0,0
41:37.0,1.42E+12,-1.4208454,-9.642797,-1.3817766,9.844371092,0,0,0,0
41:37.1,1.42E+12,-1.4852115,-9.147926,-0.9836046,9.319757578,0,0,0,0
41:37.1,1.42E+12,-1.1506572,-9.139395,-0.87687653,9.25318677,0,0,0,0
41:37.1,1.42E+12,-0.6821315,-10.072404,-1.145418,10.16024646,0,0,0,0
41:37.1,1.42E+12,-0.46388534,-10.820549,-2.656825,11.1516003,0,0,0,0
41:37.1,1.42E+12,-0.5849835,-12.97412,-4.6945376,13.80973131,0,0,0,0
41:37.2,1.42E+12,-1.9959494,-16.632813,-5.0771422,17.50461811,0,0,0,0
41:37.2,1.42E+12,-5.317692,-18.397192,-5.4097505,19.89974679,0,0,0,0
41:37.2,1.42E+12,-6.529272,-15.842156,-4.402495,17.69144601,0,0,0,0
41:37.2,1.42E+12,-7.130422,-12.73342,-2.7518775,14.8511189,0,0,0,0
41:37.2,1.42E+12,-5.3711305,-10.314751,-2.1993763,11.83555606,0,0,0,0
41:37.3,1.42E+12,-3.9487884,-9.6356125,-2.4822881,10.70512551,0,0,0,0
41:37.3,1.42E+12,-4.0285726,-10.553354,-3.8966968,11.94934826,0,0,0,0
41:37.3,1.42E+12,-4.101471,-10.839559,-3.4173934,12.08290865,0,0,0,0
41:37.3,1.42E+12,-3.771108,-9.148974,-2.2350023,10.14496013,0,0,0,0
41:37.4,1.42E+12,-2.8000772,-7.4039035,-1.898951,8.140284655,0,0,0,0
41:37.4,1.42E+12,-2.0155587,-5.5682707,-2.6921515,6.505059197,0,0,0,0
41:37.4,1.42E+12,-1.8859282,-4.135151,-2.9398866,5.41286728,0,0,0,0
41:37.4,1.42E+12,-2.7499316,-3.5075061,-2.5277934,5.123910842,0,0,0,0
41:37.4,1.42E+12,-3.5534606,-3.1066396,-1.7242644,5.02507508,0,0,0,0
41:37.5,1.42E+12,-3.4967284,-3.392695,-1.2241544,5.023548831,0,0,0,0
41:37.5,1.42E+12,-2.9627888,-3.7064424,-0.814606,4.814500563,0,0,0,0
41:37.5,1.42E+12,-2.1459374,-3.7401223,-0.80502594,4.386528115,0,0,0,0
41:37.5,1.42E+12,-1.6759149,-3.5030155,-0.58992326,3.927826091,0,0,0,0
41:37.5,1.42E+12,-1.7004639,-3.1382241,-0.8580158,3.670997016,0,0,0,0
41:37.5,1.42E+12,-1.2985497,-3.2368689,-1.3953983,3.756419574,0,0,0,0
41:37.6,1.42E+12,-0.63108766,-4.8609915,-2.3228695,5.42431864,0,0,0,0
41:37.6,1.42E+12,0,-8.097711,-2.5008495,8.475091248,0,0,0,0
41:37.6,1.42E+12,0.8282277,-12.518168,-1.7031583,12.66061765,0,0,0,0
41:37.6,1.42E+12,1.5992743,-14.048137,-2.0398083,14.28525986,0,0,0,0
41:37.7,1.42E+12,1.9378701,-13.565391,-6.3204565,15.09050509,0,0,0,0
41:37.7,1.42E+12,1.926943,-12.10847,-8.33886,14.8278367,0,0,0,0
41:37.7,1.42E+12,-1.2699591,-9.260044,-5.600903,10.89639048,0,0,0,0
41:37.7,1.42E+12,-3.80853,-8.240214,-2.0838168,9.313877817,0,0,0,0
41:37.7,1.42E+12,-6.3852715,-7.2524185,-0.80787003,9.696490098,0,0,0,0
41:37.7,1.42E+12,-6.9248996,-7.02085,-2.0796254,10.07826428,0,0,0,0
41:37.8,1.42E+12,-5.2362614,-7.3131924,-3.85194,9.784613344,0,0,0,0
41:37.8,1.42E+12,-2.6747878,-8.734786,-4.5036845,10.18499633,0,0,0,0
41:37.8,1.42E+12,-1.8300943,-10.604847,-4.871769,11.81296568,0,0,0,0
41:37.8,1.42E+12,-2.477947,-12.356654,-4.3580375,13.33490196,0,0,0,0
41:37.8,1.42E+12,-1.9157163,-13.646971,1.8720071,13.90734328,0,0,0,0
41:37.9,1.42E+12,-3.239713,-17.68692,-1.0963202,18.01457181,0,0,0,0
41:37.9,1.42E+12,-0.39083725,-19.323467,-14.931001,24.42302032,0,0,0,0
41:37.9,1.42E+12,-2.689158,-10.645113,6.1050544,12.56271033,-2.35263966,-9.39247023,-2.50784594,10.49477143
41:37.9,1.42E+12,-5.094955,-7.402706,8.132588,12.12013243,-2.413814444,-9.37502551,-2.28989318,10.55799111
41:38.0,1.42E+12,-4.4596763,-7.9011693,5.307214,10.51112313,-2.457858858,-9.370795306,-2.180916789,10.59977162
41:38.0,1.42E+12,-3.7275486,-9.595047,1.8700612,10.46215439,-2.484901624,-9.416070154,-2.171492387,10.6523656
41:38.0,1.42E+12,-4.648733,-14.250965,-2.5345294,15.20278136,-2.556653416,-9.547508826,-2.216578629,10.80127991
41:38.0,1.42E+12,-1.367107,-12.680282,-3.1527438,13.13766823,-2.564299515,-9.604752806,-2.241310197,10.86299966
41:38.0,1.42E+12,-0.6304889,-9.672735,1.5230827,9.812191373,-2.547558327,-9.582422226,-2.187389327,10.8402113
41:38.0,1.42E+12,-0.6345305,-7.907007,1.8226099,8.139121298,-2.531832029,-9.547706426,-2.123301597,10.8061063
41:38.1,1.42E+12,-1.2732522,-8.152048,-0.2296225,8.254076826,-2.527592843,-9.527788866,-2.108221955,10.78479269
41:38.1,1.42E+12,-1.9309845,-9.178164,-1.1235635,9.446152153,-2.543199389,-9.528564246,-2.113155695,10.788652
41:38.1,1.42E+12,-2.0960913,-9.150472,-1.2148737,9.465762234,-2.571478585,-9.510125606,-2.114544809,10.77476231
41:38.1,1.42E+12,-1.6459771,-8.801098,-1.6269667,9.100306987,-2.59512042,-9.469736586,-2.093947643,10.73373645
41:38.1,1.42E+12,-1.4418018,-8.786578,-1.6230748,9.050807543,-2.612256786,-9.385985746,-2.032518387,10.63855797
41:38.2,1.42E+12,-1.2561878,-8.716075,-1.8250049,8.993253809,-2.597461554,-9.227650986,-1.967475641,10.46833068
41:38.2,1.42E+12,-1.2237053,-8.543933,-2.305356,8.933695319,-2.51558182,-9.030585806,-1.905387751,10.24900966
41:38.2,1.42E+12,-0.9397458,-7.9727206,-2.9243188,8.543947353,-2.403791296,-8.873197098,-1.875824227,10.06605968
41:38.2,1.42E+12,-0.33530274,-8.258925,-4.251459,9.295008,-2.267888911,-8.783707198,-1.905815857,9.954937464
41:38.2,1.42E+12,-0.15687378,-8.590935,-3.9860609,9.471929849,-2.163603777,-8.749230878,-1.941549549,9.90766494
41:38.3,1.42E+12,-0.7048842,-8.599168,-2.258803,8.918785961,-2.098725693,-8.728501988,-1.937079847,9.871938149
41:38.3,1.42E+12,-1.432072,-7.6702,-0.780477,7.841679833,-2.046795681,-8.670838908,-1.874755451,9.78978478
41:38.3,1.42E+12,-1.7889299,-7.7248363,-0.9812096,7.989752082,-2.000544859,-8.608544454,-1.826031775,9.707921649
41:38.3,1.42E+12,-1.7669257,-8.662187,-1.8130298,9.024554676,-1.960461213,-8.598808714,-1.817592325,9.68551354
41:38.3,1.42E+12,-1.4187497,-8.731643,-1.1135345,8.915963171,-1.932834663,-8.625363504,-1.801883995,9.70102711
41:38.4,1.42E+12,-1.2154725,-8.572224,-1.1852353,8.738717321,-1.916832939,-8.68544257,-1.771745671,9.745700273
41:38.4,1.42E+12,-1.5670912,-8.749605,-0.8866063,8.932940905,-1.910456199,-8.77773165,-1.730680065,9.816101745
41:38.4,1.42E+12,-1.7699194,-8.615185,-1.1470647,8.869598903,-1.890855955,-8.879885228,-1.703065491,9.891015506
41:38.4,1.42E+12,-2.003883,-8.757988,-1.6847465,9.140911971,-1.859864403,-8.992912196,-1.702275133,9.973332244
41:38.4,1.42E+12,-2.0719912,-9.267379,-2.1733305,9.741705524,-1.831369659,-9.110405876,-1.721258655,10.06769538
41:38.5,1.42E+12,-2.0496876,-9.085656,-0.8437953,9.352131025,-1.813107635,-9.217990148,-1.721842441,10.15844799
41:38.5,1.42E+12,-1.8983524,-8.14606,-0.5016069,8.379358259,-1.808155935,-9.306108902,-1.71577406,10.23830459
41:38.5,1.42E+12,-1.2596306,-8.294402,-0.71790713,8.420164157,-1.799830249,-9.401936632,-1.718333737,10.32815135
41:38.5,1.42E+12,-0.9380992,-9.244776,-0.5721103,9.309845519,-1.784582955,-9.52406767,-1.712615627,10.44092832
41:38.5,1.42E+12,-0.49936157,-9.546099,-1.3624667,9.65575909,-1.768599192,-9.650252272,-1.711956995,10.55891511
41:38.6,1.42E+12,-0.5164261,-9.279353,-1.5920892,9.429095187,-1.766305961,-9.738619502,-1.697341389,10.63901064
41:38.6,1.42E+12,-0.40850052,-9.578431,-1.7269588,9.741437255,-1.774475971,-9.768233902,-1.681863575,10.66433756
41:38.6,1.42E+12,0.018262023,-10.416389,-3.2970438,10.925749,-1.790675285,-9.726198322,-1.713741285,10.62964019
41:38.7,1.42E+12,-0.41209304,-12.032578,-4.586163,12.88354164,-1.830902632,-9.685887142,-1.764668379,10.60160583
41:38.7,1.42E+12,-1.9627185,-16.062946,-5.1317782,16.97662056,-1.908914404,-9.735838242,-1.740894813,10.63932814
41:38.7,1.42E+12,-5.4829483,-19.065554,-6.336922,20.82581695,-2.05711223,-9.874979922,-1.700856053,10.75928774
41:38.7,1.42E+12,-6.787336,-15.920743,-4.6128078,17.91133673,-2.167459768,-10.0081939,-1.681094149,10.89958667
41:38.7,1.42E+12,-7.1371584,-11.504327,-2.5006998,13.76742784,-2.234032336,-10.07347616,-1.689431809,10.98865767
41:38.7,1.42E+12,-5.5345907,-9.121582,-1.5402969,10.77995672,-2.21701872,-10.11085943,-1.704080347,11.010327
41:38.7,1.42E+12,-3.123854,-8.854836,-2.3408322,9.677090461,-2.140997808,-10.14753915,-1.709304483,11.00230352
41:38.8,1.42E+12,-2.8370504,-10.493329,-3.4108071,11.39264735,-2.093013588,-10.21114188,-1.700481825,11.0344642
41:38.8,1.42E+12,-3.3766782,-10.804382,-4.061953,12.02647447,-2.107051396,-10.2525338,-1.691647195,11.07129376
41:38.8,1.42E+12,-3.0796957,-9.596245,-3.190166,10.57116847,-2.132043424,-10.23236176,-1.658015135,11.04645782
41:38.8,1.42E+12,-2.536176,-8.380024,-1.9612216,8.972367642,-2.133208004,-10.15282916,-1.610078817,10.95920713
41:38.8,1.42E+12,-1.7820442,-6.767876,-1.7158818,7.205836345,-2.130534562,-10.01524726,-1.681836595,10.825177
41:38.9,1.42E+12,-1.5281721,-4.863087,-2.0839663,5.507071879,-2.096303744,-9.758770604,-1.701589517,10.575027
41:38.9,1.42E+12,-2.3628364,-4.0041733,-2.5438101,5.299751833,-2.135743727,-9.45238473,-1.453845699,10.19256163
41:39.0,1.42E+12,-3.1943574,-3.830235,-2.2204826,5.459410438,-2.145847715,-9.31608717,-1.620356439,10.05049563
41:39.0,1.42E+12,-3.439697,-4.131109,-2.151027,5.790034039,-2.112742555,-9.25065523,-1.826028739,9.923893661
41:39.0,1.42E+12,-3.1837294,-4.6267285,-1.9329305,5.939610242,-2.087223617,-9.185166414,-1.970831629,9.832463403
41:39.0,1.42E+12,-2.577939,-5.1380653,-2.1035757,6.121316463,-2.064231425,-9.09602678,-2.050304367,9.745646645
41:39.0,1.42E+12,-2.1737795,-5.2563195,-2.3453228,6.152621477,-2.014732355,-8.91613387,-2.046520235,9.564643447
41:39.0,1.42E+12,-1.6952248,-4.9764013,-2.48139,5.813402906,-2.021294711,-8.762056256,-2.033093159,9.418158141
41:39.0,1.42E+12,-1.1326946,-4.7219305,-2.4893234,5.456771545,-2.031338825,-8.663040166,-2.113341281,9.331049744
41:39.0,1.42E+12,-0.08831634,-5.2150054,-1.9185604,5.557423423,-2.020414541,-8.609200134,-2.188164687,9.279415787
41:39.1,1.42E+12,0.6879694,-7.4317455,-1.3130695,7.578145854,-1.981190109,-8.594794084,-2.209833627,9.265897167
41:39.1,1.42E+12,1.0987152,-10.90183,-1.4235398,11.04914196,-1.920596115,-8.629267404,-2.215833153,9.297956963
41:39.1,1.42E+12,1.3271402,-12.142899,-1.5018269,12.30718413,-1.852131485,-8.689115944,-2.221572217,9.354785401
41:39.1,1.42E+12,0.95875627,-10.228081,-2.5438101,10.58318593,-1.800036818,-8.717655604,-2.239909085,9.38444298
41:39.1,1.42E+12,0.368833,-8.643326,-3.3394058,9.273335604,-1.763824122,-8.714790564,-2.274235705,9.388893541
41:39.2,1.42E+12,-0.24863297,-8.979826,-4.325555,9.970432258,-1.743673025,-8.720065584,-2.324246707,9.40843711
41:39.2,1.42E+12,-0.8810678,-10.342293,-4.4117756,11.2784338,-1.736820275,-8.756032784,-2.366375099,9.45533188
41:39.2,1.42E+12,-1.7938696,-10.715767,-3.7386255,11.49012407,-1.753902751,-8.810893712,-2.382661233,9.514255414
41:39.3,1.42E+12,-3.6178267,-10.488688,-3.4188905,11.60991207,-1.819553231,-8.855488972,-2.366009863,9.560553496
41:39.3,1.42E+12,-4.534371,-10.359358,-3.6510575,11.88305682,-1.907103175,-8.890857432,-2.359309795,9.608776035
41:39.3,1.42E+12,-4.2959166,-9.222472,-2.6141639,10.50441536,-1.978923823,-8.903323512,-2.366417013,9.640488623
41:39.3,1.42E+12,-3.4410443,-8.599767,-1.8324894,9.442181725,-2.019103269,-8.921914852,-2.387457261,9.672498661
41:39.3,1.42E+12,-2.9789553,-8.596923,-1.9722986,9.309737994,-2.042903777,-8.939356586,-2.407279041,9.698898379
41:39.3,1.42E+12,-2.5595274,-8.511451,-2.6379642,9.271182975,-2.058755811,-8.936341866,-2.423777729,9.703830945
41:39.3,1.42E+12,-2.5647666,-8.623268,-3.5078056,9.656266299,-2.081676149,-8.934174366,-2.471663151,9.718637008
41:39.4,1.42E+12,-3.0217662,-10.385553,-3.9733374,11.52294199,-2.117802023,-8.970440946,-2.527425193,9.774321501
41:39.4,1.42E+12,-2.6595194,-11.452684,-1.9576291,11.91928378,-2.139650587,-9.024502526,-2.548845649,9.834048359
41:39.4,1.42E+12,-2.1531227,-11.89232,1.3879138,12.16509421,-2.147314653,-9.090045226,-2.498146079,9.899958265
41:39.4,1.42E+12,-3.5476227,-16.094532,1.939367,16.59459947,-2.178189447,-9.236776106,-2.425663809,10.04903201
41:39.4,1.42E+12,-2.5207582,-19.106867,-11.044034,22.2125477,-2.187164787,-9.433565866,-2.603077879,10.29844886
41:39.5,1.42E+12,-0.8707393,-13.058694,-1.4025834,13.16263333,-2.163585821,-9.513026626,-2.614253641,10.3746589
41:39.5,1.42E+12,-4.060606,-7.818541,8.248298,12.06865876,-2.206830893,-9.506476246,-2.439255543,10.44844491
41:39.5,1.42E+12,-3.5372941,-5.9378524,6.3405147,9.379374571,-2.252384163,-9.459345254,-2.298087106,10.46762912
41:39.5,1.42E+12,-3.4741256,-7.7101665,5.4410353,10.05589784,-2.303104691,-9.428653064,-2.177824194,10.48255017
41:39.6,1.42E+12,-6.0950255,-11.638148,2.38035,13.35147523,-2.41501797,-9.470494044,-2.10296786,10.55646449
41:39.6,1.42E+12,-1.3585749,-12.235406,-4.871021,13.23924965,-2.431860946,-9.529615104,-2.168546496,10.63266758
41:39.6,1.42E+12,0.355361,-10.602153,-1.2490027,10.68138275,-2.416583715,-9.550089544,-2.158987374,10.65146649
41:39.6,1.42E+12,-0.19684067,-8.529563,1.3268409,8.634390424,-2.420885769,-9.512353024,-2.06650968,10.60563932
41:39.6,1.42E+12,-0.9855505,-7.9002714,-0.19220032,7.963826903,-2.432354918,-9.429706892,-1.978630426,10.50724502
41:39.6,1.42E+12,-1.181044,-7.9366455,-1.051713,8.092669952,-2.416721428,-9.267180882,-1.897029122,10.32956601
41:39.7,1.42E+12,-1.5739769,-8.585996,-1.5600559,8.867384338,-2.338542,-9.057589722,-1.8014918,10.09039736
41:39.7,1.42E+12,-1.2528946,-9.239686,-2.2032683,9.581019437,-2.227853172,-8.923968582,-1.75330101,9.923791015
41:39.7,1.42E+12,-0.7873627,-9.3067465,-2.689607,9.71953992,-2.100857258,-8.880016972,-1.757079154,9.842833256
41:39.7,1.42E+12,-0.2749782,-8.518187,-3.16427,9.091079551,-1.995665008,-8.867949072,-1.789558616,9.809055713
41:39.7,1.42E+12,-0.3412903,-7.2771173,-2.7937903,7.80244702,-1.940013734,-8.836394698,-1.798617778,9.771562844
41:39.8,1.42E+12,-1.0590477,-6.9394193,-1.6320561,7.2069917,-1.90445368,-8.765316504,-1.763042758,9.687849731
41:39.8,1.42E+12,-1.4247372,-7.9863424,-1.4694942,8.244449904,-1.86541486,-8.708955712,-1.711193582,9.61220924
41:39.8,1.42E+12,-0.9656419,-8.596623,-2.4544458,8.992146322,-1.823133784,-8.688963272,-1.696479178,9.580628797
41:39.8,1.42E+12,-1.0803035,-7.8019257,-1.5739769,8.032092104,-1.794016334,-8.677401306,-1.688734284,9.561823286
41:39.8,1.42E+12,-1.253194,-7.2500234,-0.39068756,7.367901416,-1.78343933,-8.687044254,-1.6622304,9.565064587
41:39.9,1.42E+12,-1.7675244,-7.4630303,-0.75308394,7.706367444,-1.788226376,-8.73904312,-1.635612752,9.609050499
41:39.9,1.42E+12,-2.0731888,-8.7946615,-1.7134868,9.196750498,-1.782433424,-8.834852884,-1.619006286,9.686990472
41:39.9,1.42E+12,-2.4884253,-9.267677,-0.83885556,9.632537366,-1.768314782,-8.943601724,-1.591373746,9.77045301
41:39.9,1.42E+12,-2.8363018,-8.713231,0.75847274,9.194579015,-1.756246878,-9.035244164,-1.533183751,9.83854391
41:40.0,1.42E+12,-2.2228775,-7.9680805,-0.4831952,8.286432817,-1.73702984,-9.102071204,-1.504189045,9.885480362
41:40.0,1.42E+12,-1.0823991,-8.50666,-0.7268884,8.605999007,-1.707119042,-9.169443098,-1.476655299,9.935174012
41:40.0,1.42E+12,-0.8628058,-10.115814,-1.2394226,10.22791744,-1.680899568,-9.266632988,-1.454537295,10.01667993
41:40.0,1.42E+12,-0.7699988,-11.24761,-2.1528232,11.47764247,-1.662395048,-9.392057162,-1.447965959,10.12996472
41:40.0,1.42E+12,-1.2518468,-9.879755,-0.90411985,9.999705594,-1.664778092,-9.495213652,-1.416261888,10.2208234
41:40.1,1.42E+12,-1.2612772,-10.289303,-0.81191164,10.39806602,-1.688237309,-9.596699604,-1.394128913,10.31763626
41:40.1,1.42E+12,-1.2051439,-10.81516,-1.201252,10.94819912,-1.726099575,-9.664367894,-1.391892563,10.38503732
41:40.1,1.42E+12,-1.5173945,-11.051369,-3.1871722,11.60143566,-1.778421769,-9.667358674,-1.427165211,10.3960832
41:40.1,1.42E+12,-1.30319,-14.625337,-4.8267126,15.45625896,-1.831028373,-9.717007434,-1.493662925,10.45906469
41:40.1,1.42E+12,-4.196523,-18.272652,-6.5482826,19.85901864,-1.934133959,-9.877898854,-1.573752375,10.64458135
41:40.1,1.42E+12,-6.8322425,-16.849262,-6.0381436,19.15819265,-2.078155469,-10.04201757,-1.627727131,10.84227849
41:40.2,1.42E+12,-5.8957896,-13.132341,-2.8595037,14.67635774,-2.191098601,-10.12506787,-1.598406105,10.936397
41:40.3,1.42E+12,-5.455405,-10.114766,-1.6823516,11.61465634,-2.282585345,-10.12051733,-1.543817625,10.94312145
41:40.3,1.42E+12,-4.1171885,-9.430839,-0.5575905,10.30547779,-2.329051723,-10.09481877,-1.480196925,10.91942852
41:40.3,1.42E+12,-3.6889288,-9.626781,-1.9761904,10.497068,-2.330473765,-10.07758063,-1.451342923,10.89717164
41:40.3,1.42E+12,-3.7752993,-11.254197,-3.986959,12.52220735,-2.315292331,-10.09547741,-1.458060953,10.90995465
41:40.3,1.42E+12,-3.0701156,-10.606045,-3.6015105,11.61398632,-2.290776311,-10.12314887,-1.477807885,10.93214607
41:40.3,1.42E+12,-2.4391778,-9.046886,-1.700913,9.523068816,-2.270738981,-10.13209125,-1.475176357,10.93376381
41:40.3,1.42E+12,-1.9806812,-7.877818,-0.9976753,8.18403754,-2.250773499,-10.11770915,-1.455683891,10.9112498
41:40.3,1.42E+12,-1.9950513,-6.4078746,-1.3807287,6.851824452,-2.239483977,-10.07563763,-1.430539181,10.86286263
41:40.3,1.42E+12,-2.4562423,-4.761748,-2.5471032,5.932546246,-2.237313491,-9.998407226,-1.411325133,10.78838823
41:40.4,1.42E+12,-3.510949,-4.160598,-2.514022,5.996469396,-2.247097147,-9.873908126,-1.382138825,10.67785878
41:40.4,1.42E+12,-4.132606,-3.8154159,-2.053879,5.987841831,-2.276558879,-9.721162764,-1.384063823,10.55922994
41:40.4,1.42E+12,-3.9981856,-4.0944357,-1.7503102,5.98443628,-2.313460137,-9.565205078,-1.446828303,10.43561678
41:40.4,1.42E+12,-3.3597634,-3.8594244,-1.3811778,5.300077256,-2.309702951,-9.320502926,-1.513239199,10.20972634
41:40.4,1.42E+12,-2.4574397,-3.4175432,-1.0401869,4.335965889,-2.308436581,-9.00671645,-1.313162257,9.852194701
41:40.5,1.42E+12,-1.9814296,-3.084336,-1.0533595,3.814283426,-2.330650387,-8.80722929,-1.306177779,9.665227703
41:40.5,1.42E+12,-1.7443227,-2.401456,-1.0047107,3.133543712,-2.284324721,-8.69888759,-1.491237953,9.486525402
41:40.5,1.42E+12,-1.4093193,-2.0218456,-0.7955955,2.589790092,-2.241765225,-8.620567454,-1.633960157,9.350733713
41:40.5,1.42E+12,-0.26210496,-4.410129,-0.13681549,4.420028878,-2.177524813,-8.554566704,-1.745517172,9.238016334
41:40.6,1.42E+12,0.91010743,-9.133556,-0.5351372,9.194373962,-2.037422154,-8.504474864,-1.803826916,9.154874308
41:40.6,1.42E+12,1.6771125,-14.538517,-1.0758128,14.67441842,-1.976708406,-8.550537084,-1.727922752,9.183577684
41:40.6,1.42E+12,1.9943029,-15.588882,-1.6461269,15.80190558,-1.943929568,-8.650271664,-1.735865236,9.28598814
41:40.6,1.42E+12,0.5816904,-12.291389,-4.410129,13.07156628,-1.928358947,-8.725508184,-1.850604634,9.374731657
41:40.6,1.42E+12,-0.96773756,-11.5243845,-8.307125,14.23925138,-1.928002688,-8.797990446,-2.012903128,9.500240147
41:40.6,1.42E+12,-1.5160474,-11.184591,-7.1293745,13.34996091,-1.934702756,-8.862949356,-2.134456358,9.605385966
41:40.7,1.42E+12,-2.9100983,-10.057137,-4.9404764,11.57682961,-1.961425184,-8.892372176,-2.202064768,9.659574871
41:40.7,1.42E+12,-4.98194,-8.894054,-3.162324,10.67352874,-2.036006092,-8.885459536,-2.221245882,9.681425057
41:40.7,1.42E+12,-6.8575397,-8.0549,-2.6689498,10.91011264,-2.157409632,-8.860422606,-2.220832738,9.705236512
41:40.7,1.42E+12,-8.02586,-7.3110967,-5.1774335,12.02798326,-2.312427268,-8.8362808,-2.261096008,9.763974586
41:40.7,1.42E+12,-6.526129,-9.466464,-6.5651975,13.2403217,-2.436124042,-8.880067734,-2.336524152,9.87273208
41:40.8,1.42E+12,-4.7005253,-11.590847,-2.902165,12.83998575,-2.508953594,-8.973096288,-2.36192633,9.985391961
41:40.8,1.42E+12,-3.340304,-13.044474,2.007625,13.61420181,-2.54726493,-9.07425892,-2.292383946,10.092787
41:40.8,1.42E+12,-2.7882519,-13.0473175,2.417323,13.55914057,-2.58371713,-9.16327281,-2.19494857,10.18412688
41:40.8,1.42E+12,-0.72045183,-16.315922,-2.8527677,16.57910266,-2.576520096,-9.333552736,-2.220524386,10.35506709
41:40.9,1.42E+12,1.3668077,-17.03293,-2.7656488,17.31004567,-2.524120062,-9.529210868,-2.268023611,10.55390998
41:40.9,1.42E+12,-1.979783,-12.205768,2.7521768,12.66786447,-2.528365234,-9.624065622,-2.197918396,10.65313992
41:40.9,1.42E+12,-5.676346,-9.904004,4.3358836,12.21106407,-2.600428378,-9.646252472,-2.076930988,10.71342619
41:40.9,1.42E+12,-4.9599357,-10.296787,4.6473856,12.33786763,-2.649858586,-9.666834672,-1.967206165,10.7675328
41:40.9,1.42E+12,-4.5509863,-11.101963,0.94273955,12.03552311,-2.684152276,-9.714609312,-1.963520829,10.82435168
41:40.9,1.42E+12,-1.1891272,-11.219769,-0.9556128,11.32300471,-2.66347727,-9.779643082,-1.972969181,10.88508312
41:41.0,1.42E+12,0.61776537,-10.782378,-0.29129425,10.80398823,-2.629473981,-9.825157442,-1.964257298,10.9290429
41:41.0,1.42E+12,0.14504836,-9.503587,0.030237122,9.504741931,-2.609316898,-9.812912902,-1.938864103,10.91457939
41:41.0,1.42E+12,-1.0118958,-8.08379,-0.76461,8.182678188,-2.614154838,-9.749636502,-1.911099839,10.84868011
41:41.0,1.42E+12,-1.2545412,-7.5564365,-1.2913646,7.767961684,-2.614208726,-9.703170132,-1.918844734,10.80404523
41:41.0,1.42E+12,-1.0294093,-7.339537,-1.7700691,7.619818338,-2.609571368,-9.644174812,-1.938007883,10.74848027
41:41.1,1.42E+12,-0.9339079,-7.332352,-2.0489392,7.670314313,-2.604146648,-9.574518652,-1.954961627,10.68292258
41:41.1,1.42E+12,-0.65204406,-7.832013,-2.5628207,8.266416335,-2.586839639,-9.510131532,-1.942474597,10.61622219
41:41.1,1.42E+12,-0.50220567,-9.156609,-4.1400905,10.06161261,-2.570819952,-9.400756972,-1.928742155,10.50832926
41:41.1,1.42E+12,-0.07155121,-9.319171,-5.830825,10.99320644,-2.488320517,-9.221687352,-1.914393003,10.33101302
41:41.1,1.42E+12,-0.30955628,-8.435858,-3.9703436,9.328620133,-2.357866792,-9.053419272,-1.873037003,10.13442157
41:41.2,1.42E+12,-1.2121793,-7.4134836,-1.2112812,7.608963128,-2.264194586,-8.939042124,-1.840072553,9.993073678
41:41.2,1.42E+12,-1.9260448,-7.758965,-0.5530998,8.013557626,-2.193607382,-8.891926104,-1.817487517,9.921051703
41:41.2,1.42E+12,-1.6997154,-8.09801,-0.5113367,8.290251119,-2.14525792,-8.865269524,-1.816562441,9.88074717
41:41.2,1.42E+12,-1.0145901,-8.050409,-0.31299913,8.120126021,-2.091771146,-8.833742084,-1.783298616,9.83320833
41:41.2,1.42E+12,-0.26988876,-8.570578,-2.3830445,8.899806081,-2.021662935,-8.780069704,-1.751220326,9.760760305
41:41.3,1.42E+12,-0.9029224,-9.03132,-1.7101936,9.236058248,-1.978319071,-8.748575204,-1.713393988,9.713201743
41:41.3,1.42E+12,-2.2715263,-8.277786,-0.42017624,8.594074753,-1.974966041,-8.733193204,-1.687779253,9.694621862
41:41.3,1.42E+12,-2.2230272,-8.630603,-0.76925033,8.945440411,-1.979812961,-8.748248904,-1.683210753,9.70984992
41:41.3,1.42E+12,-1.5838563,-9.171428,-0.77808195,9.339652234,-1.971589061,-8.803519972,-1.671157818,9.759606475
41:41.4,1.42E+12,-1.0141411,-8.743618,-0.83376616,8.841634685,-1.942747037,-8.883157372,-1.636891078,9.817788244
41:41.4,1.42E+12,-0.87148774,-9.254954,-0.47556105,9.3080515,-1.889957812,-8.985044492,-1.596121859,9.884019886
41:41.4,1.42E+12,-1.190175,-9.870923,-0.8599617,9.979537641,-1.831109192,-9.106154634,-1.572243513,9.963853802
41:41.4,1.42E+12,-0.9409433,-10.245295,-1.147364,10.35219243,-1.769964346,-9.22917182,-1.560184589,10.05120893
41:41.4,1.42E+12,-1.2202624,-10.92114,-1.5988252,11.10479992,-1.727174326,-9.370406132,-1.564537537,10.16730338
41:41.4,1.42E+12,-1.4626085,-10.219249,-1.8441651,10.48681165,-1.707277702,-9.506440248,-1.580617101,10.29032029
41:41.5,1.42E+12,-1.0235715,-10.974278,-2.9722192,11.41562803,-1.68812054,-9.664239088,-1.618994295,10.44234719
41:41.5,1.42E+12,-0.48020142,-14.39302,-4.5541296,15.10396354,-1.662838115,-9.904070368,-1.689982673,10.68175558
41:41.5,1.42E+12,-3.3650024,-18.127304,-6.0900855,19.41678482,-1.701951777,-10.22617954,-1.795872473,11.01829548
41:41.6,1.42E+12,-6.057154,-16.718285,-6.302644,18.8656696,-1.817852757,-10.47234266,-1.919189043,11.30720829
41:41.6,1.42E+12,-6.476881,-12.578643,-3.3611104,14.5419844,-1.965592526,-10.5412444,-1.975708507,11.4141605
41:41.6,1.42E+12,-5.731731,-10.470127,-1.9651135,12.09702322,-2.113769396,-10.4598766,-1.993494521,11.3626126
41:41.6,1.42E+12,-4.0254292,-8.87235,-0.78601545,9.77448183,-2.234164038,-10.32554596,-1.976292292,11.24206412
41:41.6,1.42E+12,-3.6534526,-9.266331,-2.1070185,10.18096916,-2.318866898,-10.2650448,-1.930230082,11.18425218
41:41.6,1.42E+12,-3.608546,-10.546169,-3.7107835,11.7479019,-2.371683067,-10.24548049,-1.838303252,11.13442519
41:41.6,1.42E+12,-3.9425015,-9.980495,-3.4235308,11.26384311,-2.420212149,-10.22139857,-1.764186378,11.09270283
41:41.7,1.42E+12,-3.3356636,-8.483309,-2.2809567,9.396592292,-2.428723455,-10.18992201,-1.710995984,11.04909809
41:41.7,1.42E+12,-2.493365,-7.7010355,-1.1662248,8.178196444,-2.378951955,-10.16606164,-1.671074,10.99919144
41:41.7,1.42E+12,-2.473606,-5.9818606,-1.1243119,6.570042628,-2.291273281,-10.12460085,-1.640181242,10.91239004
41:41.7,1.42E+12,-2.8753707,-4.0670424,-1.762435,5.283442786,-2.188263495,-10.05971976,-1.571881272,10.77749923
41:41.7,1.42E+12,-3.7663178,-3.8029916,-2.031276,5.724856074,-2.133067271,-9.946450314,-1.481202842,10.62718992
41:41.8,1.42E+12,-4.3426194,-4.181105,-2.146237,6.398930812,-2.125909153,-9.798255474,-1.466084282,10.49836882
41:41.8,1.42E+12,-4.0372543,-4.298162,-2.0609143,6.246678046,-2.139848159,-9.623329234,-1.547455068,10.35101834
41:41.8,1.42E+12,-3.2280374,-4.245172,-1.6789087,5.591104112,-2.148643869,-9.447286324,-1.629379702,10.19165762
41:41.9,1.42E+12,-2.68332,-3.5796561,-0.8815169,4.559738596,-2.187901232,-9.192561006,-1.589954686,9.951270334
41:41.9,1.42E+12,-2.1059706,-3.259472,-0.43020537,3.90440092,-2.257356798,-8.917091846,-1.543245817,9.683157439
41:41.9,1.42E+12,-1.4627582,-3.109933,0.021555176,3.436831308,-2.247016302,-8.735175146,-1.59785825,9.498536776
41:41.9,1.42E+12,-1.2157718,-4.716841,-0.66177386,4.91575373,-2.157804818,-8.631431886,-1.697811399,9.352630569
41:41.9,1.42E+12,-0.31928605,-8.678204,-1.9405646,8.898255965,-2.064991825,-8.599060226,-1.829570403,9.283838336
41:41.9,1.42E+12,0.9327104,-13.028158,-2.1472847,13.23683048,-1.955317891,-8.637584126,-1.891370888,9.307864483
41:41.9,1.42E+12,2.0231926,-13.673316,-1.9035915,13.95265349,-1.891071495,-8.686655066,-1.910330462,9.360457459
41:42.0,1.42E+12,1.7362394,-11.219918,-3.5636394,11.89960558,-1.868702015,-8.695405866,-1.975777365,9.382369806
41:42.0,1.42E+12,-0.045056306,-10.696307,-5.2679954,11.92328768,-1.872504108,-8.719260266,-2.081742015,9.430740721
41:42.0,1.42E+12,-2.6351202,-11.145523,-5.63593,12.76441336,-1.904968596,-8.780494926,-2.179168415,9.522375424
41:42.0,1.42E+12,-4.5536804,-11.116932,-5.6979012,13.29617465,-1.97095138,-8.851704836,-2.267299147,9.632939684
41:42.0,1.42E+12,-4.8991623,-10.009235,-4.7392945,12.10980961,-2.04834644,-8.905098796,-2.326683655,9.722739509
41:42.1,1.42E+12,-3.9516325,-9.120983,-3.3206947,10.48020723,-2.108700932,-8.940871416,-2.352118765,9.778937367
41:42.1,1.42E+12,-3.499423,-9.034163,-2.858456,10.10113029,-2.165648511,-8.964914416,-2.358031471,9.815631646
41:42.1,1.42E+12,-4.21254,-9.333691,-4.4105783,11.14973013,-2.239855197,-8.968456056,-2.363441227,9.837393997
41:42.1,1.42E+12,-4.371809,-9.662107,-6.0260186,12.19761968,-2.325860353,-8.975314776,-2.367345099,9.861482262
41:42.2,1.42E+12,-4.637955,-10.858719,-1.479224,11.90002137,-2.412428328,-9.023771996,-2.317522707,9.912910286
41:42.2,1.42E+12,-4.424499,-12.949422,3.8507423,14.2159044,-2.476674722,-9.134490764,-2.216282237,10.04504911
41:42.2,1.42E+12,-4.4388695,-13.98377,1.9510428,14.80053897,-2.526931216,-9.258986864,-2.166199385,10.18078874
41:42.2,1.42E+12,-1.4260844,-16.888031,-7.8245287,18.66715182,-2.521458596,-9.434787284,-2.312463225,10.38832675
41:42.3,1.42E+12,0.10912308,-15.144307,-0.15822098,15.14552661,-2.498984332,-9.576665244,-2.309367662,10.52883476
41:42.3,1.42E+12,-3.230582,-9.249715,4.745881,10.88656393,-2.558198197,-9.590247984,-2.166789152,10.56856992
41:42.3,1.42E+12,-4.3022037,-7.7546244,5.27533,10.31853976,-2.626183823,-9.564714072,-2.02707868,10.59021955
41:42.3,1.42E+12,-4.4427614,-9.894424,4.617298,11.78801069,-2.669608525,-9.597046832,-1.926329195,10.65409827
41:42.3,1.42E+12,-3.509901,-12.005185,-0.65354097,12.52481488,-2.695346001,-9.664538472,-1.924015008,10.72568576
41:42.3,1.42E+12,0.025596771,-11.890823,-1.9574794,12.05089426,-2.663156939,-9.718926372,-1.947602957,10.7799106
41:42.4,1.42E+12,0.2865042,-10.645263,1.0689272,10.70263119,-2.637144033,-9.756959272,-1.90954909,10.81713053
41:42.4,1.42E+12,-0.517923,-8.794961,0.6345305,8.833018294,-2.630072739,-9.747759412,-1.887347259,10.80762987
41:42.4,1.42E+12,-1.1439213,-7.856113,-0.16645385,7.94070364,-2.629147665,-9.707463212,-1.873477102,10.76685319
41:42.4,1.42E+12,-1.9396664,-7.989935,-0.121247865,8.222899008,-2.649122127,-9.662356012,-1.852954779,10.72426732
41:42.4,1.42E+12,-1.723965,-8.095615,-1.1940669,8.362824482,-2.659196179,-9.605845512,-1.844859613,10.66942781
41:42.4,1.42E+12,-1.07716,-8.022567,-2.643952,8.515417612,-2.651487209,-9.561911872,-1.860855351,10.62999993
41:42.5,1.42E+12,-0.4513115,-8.456215,-2.715503,8.892986604,-2.640042009,-9.511550612,-1.855721027,10.5795471
41:42.5,1.42E+12,0.0504451,-8.9762335,-2.82762,9.411203293,-2.629429078,-9.403214882,-1.821190835,10.46569189
41:42.5,1.42E+12,0.13217515,-8.228988,-2.3968158,8.571956588,-2.559485527,-9.205248562,-1.747325441,10.24879533
41:42.5,1.42E+12,-0.834814,-6.940617,-1.0913805,7.075322618,-2.455038727,-9.009695202,-1.643100171,10.01298839
41:42.5,1.42E+12,-1.1822416,-6.6416883,-1.0957215,6.834495174,-2.349145939,-8.890956108,-1.597792393,9.858838606
41:42.6,1.42E+12,-0.5471123,-7.488777,-1.919159,7.750115102,-2.245453565,-8.831329108,-1.596873303,9.771900444
41:42.6,1.42E+12,-0.7981403,-8.046517,-0.8042775,8.125904631,-2.180907787,-8.814812448,-1.597238544,9.7389289
41:42.6,1.42E+12,-1.4823674,-8.35802,0.23441254,8.491693628,-2.137486083,-8.796646228,-1.550409924,9.705143389
41:42.6,1.42E+12,-0.7779323,-8.806038,-0.17618363,8.842088248,-2.080873809,-8.761843608,-1.479717926,9.647027116
41:42.6,1.42E+12,-0.4258644,-9.14149,-0.11121872,9.152080065,-2.010541067,-8.745063508,-1.413471685,9.604791855
41:42.7,1.42E+12,-1.3256433,-9.401799,-0.15193406,9.496011718,-1.970340661,-8.763433308,-1.370891232,9.606780244
41:42.7,1.42E+12,-2.2493725,-9.969568,-0.65892977,10.24139401,-1.965460811,-8.808803958,-1.360745331,9.648044195
41:42.7,1.42E+12,-2.1007316,-9.840686,-0.08023316,10.0627338,-1.958003323,-8.885980466,-1.339863756,9.717898018
41:42.7,1.42E+12,-1.1466156,-9.641451,-1.6452287,9.847795804,-1.923428221,-8.997468638,-1.33751963,9.809185079
41:42.7,1.42E+12,-0.8529263,-10.217902,-1.5765216,10.37393006,-1.865160391,-9.125766846,-1.328424542,9.902166559
41:42.8,1.42E+12,-0.8918454,-11.072325,-1.375789,11.19305876,-1.796144911,-9.263591246,-1.313015582,9.998049118
41:42.8,1.42E+12,-0.58079225,-12.103681,-2.4780967,12.36840235,-1.72701567,-9.419701626,-1.32135923,10.1204836
41:42.8,1.42E+12,-0.54157376,-11.717933,-3.9200482,12.36810551,-1.673286397,-9.569156846,-1.36618202,10.25602363
41:42.8,1.42E+12,-0.7529343,-12.917388,-5.464387,14.04583027,-1.634678683,-9.755911484,-1.457839422,10.44574547
41:42.8,1.42E+12,-1.8514998,-15.705191,-5.340295,16.69130991,-1.629589267,-10.00482586,-1.556041215,10.70148364
41:42.9,1.42E+12,-3.7853284,-17.044905,-4.0862026,17.93194215,-1.676040671,-10.2835253,-1.638196371,10.99138586
41:42.9,1.42E+12,-6.084098,-14.852714,-1.7859361,16.14957985,-1.773407195,-10.48624276,-1.660679615,11.21606238
41:42.9,1.42E+12,-6.84302,-12.046948,-0.24848327,13.85704235,-1.903881874,-10.55361764,-1.626837989,11.31523811
41:42.9,1.42E+12,-6.166876,-9.699829,-0.78466827,11.52096986,-2.045873602,-10.48705106,-1.59958566,11.2809209
41:42.9,1.42E+12,-4.2911267,-9.640103,-1.8244061,10.70858589,-2.172159988,-10.4063868,-1.598001952,11.21603955
41:43.0,1.42E+12,-2.7494824,-9.46377,-2.7223887,10.22418683,-2.261874424,-10.37126384,-1.581176938,11.18253117
41:43.0,1.42E+12,-3.5658846,-8.516989,-2.13516,9.47700073,-2.33229099,-10.32767748,-1.51852023,11.13360543
41:43.0,1.42E+12,-4.440516,-7.2765183,-1.5747254,8.6686597,-2.368398906,-10.25029739,-1.437296138,11.05169036
41:43.0,1.42E+12,-4.2285566,-6.1448717,-0.8276289,7.505005578,-2.36189643,-10.15085618,-1.339890692,10.93586698
41:43.0,1.42E+12,-3.5326538,-6.0052123,-0.8596623,7.020059609,-2.33456626,-10.07077573,-1.262298048,10.83407198
41:43.1,1.42E+12,-3.0204191,-6.111491,-0.85277665,6.870260679,-2.315941992,-10.01058589,-1.212939687,10.76187305
41:43.1,1.42E+12,-3.3688943,-5.83786,-0.9241782,6.803246543,-2.313331418,-9.94665983,-1.174254131,10.69591537
41:43.1,1.42E+12,-3.4771192,-5.9092617,-1.3810282,6.994066818,-2.298623002,-9.878171244,-1.113663129,10.61280211
41:43.2,1.42E+12,-3.3250356,-6.0613456,-1.830244,7.151612778,-2.277687534,-9.806156016,-1.029747637,10.51188197
41:43.2,1.42E+12,-3.1439123,-6.2078905,-1.8152751,7.191475002,-2.24780668,-9.713139446,-1.036468659,10.41771104
41:43.2,1.42E+12,-3.0138328,-7.5935593,-2.1622536,8.451075175,-2.219593356,-9.606022192,-1.156728577,10.30241446
41:43.2,1.42E+12,-1.9856209,-9.466913,-3.1621742,10.17666339,-2.170528384,-9.515685052,-1.258992917,10.20993695
41:43.2,1.42E+12,-0.74095917,-11.080708,-4.091891,11.83531505,-2.15682588,-9.399538592,-1.184340163,10.07330021
41:43.2,1.42E+12,0.17393829,-11.653267,-5.4410353,12.86210525,-2.155529575,-9.329717792,-1.28999645,10.02763178
41:43.2,1.42E+12,1.7122893,-10.8346195,-6.8273025,12.9202544,-2.056672149,-9.361415882,-1.52146012,10.06830559
41:43.3,1.42E+12,1.8510507,-9.661509,-6.9883676,12.06683167,-1.933607061,-9.399553574,-1.766734072,10.10327143
41:43.3,1.42E+12,0.9207353,-8.928633,-5.2096167,10.37826319,-1.826337127,-9.380237754,-1.963272366,10.07507648
41:43.3,1.42E+12,0.56058425,-8.750653,-3.27489,9.360186277,-1.744927422,-9.315147114,-2.015699346,10.01178391
41:43.3,1.42E+12,0.050744478,-8.681946,-2.1844075,8.952675437,-1.744424468,-9.250969574,-2.020237908,9.949819532
41:43.3,1.42E+12,-1.5444882,-9.281599,-2.2309606,9.670093536,-1.781044316,-9.223696294,-2.086235664,9.929168778
41:43.4,1.42E+12,-3.594625,-9.713151,-2.6117687,10.68119689,-1.842578356,-9.242060094,-2.151161648,9.96613235
41:43.4,1.42E+12,-5.2332673,-9.80012,-1.988465,11.28642688,-1.924365276,-9.280940234,-2.187601871,10.03304682
41:43.4,1.42E+12,-5.9632993,-13.434712,-2.2725742,14.87336608,-2.004837934,-9.389835774,-2.230628398,10.16605616
41:43.4,1.42E+12,-4.1917334,-14.288537,-5.871091,16.00633087,-2.054193302,-9.513694214,-2.32416888,10.31892628
41:43.4,1.42E+12,-3.7083883,-9.453142,-2.0368145,10.35676836,-2.106817868,-9.542305714,-2.31202613,10.3557533
41:43.5,1.42E+12,-4.6782217,-5.4530106,2.5888665,7.636970121,-2.191356072,-9.482241626,-2.20593874,10.33063297
41:43.5,1.42E+12,-5.006339,-4.4503956,4.1730223,7.89199381,-2.292491754,-9.391724868,-2.065925894,10.30024878
41:43.5,1.42E+12,-4.57793,-6.3824277,4.1302114,8.874202648,-2.386693857,-9.354793662,-1.93538535,10.3062937
41:43.5,1.42E+12,-2.7032287,-10.7927065,3.4923875,11.66133481,-2.424062151,-9.431835452,-1.84370999,10.39801395
41:43.5,1.42E+12,1.1367362,-13.424833,-0.5372328,13.48357999,-2.377682595,-9.567498346,-1.832540216,10.53099564
41:43.6,1.42E+12,1.7034576,-12.277169,-2.9190798,12.73387896,-2.332671197,-9.663266186,-1.852538632,10.63067092
41:43.6,1.42E+12,-1.4404546,-9.946516,0.35670823,10.05660632,-2.345517483,-9.701266166,-1.829318917,10.66928495
41:43.6,1.42E+12,-3.8136196,-8.750204,1.5322137,9.667338999,-2.392142527,-9.709109846,-1.803362894,10.69279786
41:43.6,1.42E+12,-4.422703,-8.752898,1.6042141,9.937153924,-2.465037941,-9.708047046,-1.767754939,10.71469917
41:43.6,1.42E+12,-3.6812947,-9.101074,0.83092207,9.852507808,-2.530146547,-9.707238726,-1.748912124,10.72870773
41:43.7,1.42E+12,-3.195405,-9.413176,0.6459068,9.961711254,-2.567541781,-9.707466266,-1.732955306,10.73802172
41:43.7,1.42E+12,-2.8502228,-9.069789,1.7305512,9.663314647,-2.579558787,-9.689470686,-1.685165687,10.72646013
41:43.7,1.42E+12,-2.3161335,-9.164692,2.3029609,9.729320775,-2.583866825,-9.675950806,-1.637501806,10.71979187
41:43.7,1.42E+12,-2.146237,-9.186846,2.3700216,9.727357045,-2.603859253,-9.666858706,-1.5571968,10.7173831
41:43.7,1.42E+12,-1.2731025,-9.431288,2.1824615,9.763868163,-2.612262777,-9.651126426,-1.482017138,10.70518186
41:43.8,1.42E+12,-0.49561936,-9.869427,1.6395406,10.01695169,-2.604338256,-9.627068466,-1.421710546,10.68165972
41:43.8,1.42E+12,0.068407744,-9.977502,1.0382409,10.03160854,-2.591354257,-9.584544886,-1.351383794,10.63492384
41:43.8,1.42E+12,0.41448808,-10.006541,0.8464897,10.05083121,-2.57223302,-9.550317046,-1.256053036,10.58857835
41:43.8,1.42E+12,0.09385483,-9.53128,1.2049942,9.607607308,-2.555297237,-9.482594886,-1.122665412,10.4998139
41:43.9,1.42E+12,-0.13516891,-9.182804,1.0503658,9.243669631,-2.520970619,-9.352147146,-0.994852196,10.35086109
41:43.9,1.42E+12,-0.1498384,-9.364377,0.7499405,9.395553145,-2.448260819,-9.198536586,-0.898129334,10.18013331
41:43.9,1.42E+12,0.17318985,-9.427096,0.57794815,9.446383318,-2.323115062,-9.090024226,-0.850851649,10.04606938
41:43.9,1.42E+12,0.47870454,-9.693393,0.6224057,9.725143431,-2.176680572,-9.042953126,-0.833433869,9.9634314
41:43.9,1.42E+12,0.5879773,-10.617571,0.54501665,10.64779669,-2.041583506,-9.061307966,-0.806840171,9.945967937
41:44.0,1.42E+12,0.25192612,-10.903476,0.15178436,10.90744214,-1.950722449,-9.086575426,-0.767316362,9.949945062
41:44.0,1.42E+12,-1.0318043,-10.422077,-0.5839357,10.48929407,-1.916368887,-9.105741566,-0.724547302,9.955247207
41:44.0,1.42E+12,-2.5848248,-9.6356125,-0.4234694,9.985272847,-1.896747691,-9.128114036,-0.69031349,9.965412649
41:44.0,1.42E+12,-3.0925689,-9.409433,0.032033388,9.904667482,-1.869788749,-9.17077233,-0.658178314,9.990132805
41:44.0,1.42E+12,-3.617228,-9.592053,-1.4485377,10.35326425,-1.857562177,-9.239715956,-0.67059649,10.04709798
41:44.0,1.42E+12,-3.3278797,-10.4743185,-2.7364595,11.32582632,-1.853466695,-9.32909808,-0.708132434,10.13321331
41:44.1,1.42E+12,-1.9043399,-11.802207,-1.391207,12.03553312,-1.831145111,-9.4429124,-0.718901041,10.23651876
41:44.1,1.42E+12,-1.2955558,-13.412109,-1.1018586,13.51951275,-1.789678341,-9.59439738,-0.722454649,10.37084409
41:44.1,1.42E+12,-1.4446459,-14.550941,-1.0903326,14.66307304,-1.749028875,-9.767230966,-0.716640737,10.52422421
41:44.2,1.42E+12,-3.0015583,-13.760136,-1.223406,14.13673998,-1.742559329,-9.921206774,-0.704503977,10.66392675
41:44.2,1.42E+12,-4.278104,-12.586127,-1.3982424,13.36666931,-1.765243163,-10.0487715,-0.696163323,10.78743064
41:44.2,1.42E+12,-5.4021163,-10.760374,-1.5766712,12.14308038,-1.813008833,-10.1121078,-0.684451675,10.86127074
41:44.2,1.42E+12,-7.063661,-9.79114,-1.5862514,12.17694226,-1.914569635,-10.11859234,-0.652933219,10.90127632
41:44.2,1.42E+12,-7.4160285,-8.42029,0.5119354,11.23213427,-2.048071022,-10.06538398,-0.560856691,10.88921271
41:44.2,1.42E+12,-7.013815,-8.2059355,2.6274862,11.1101153,-2.191826088,-9.996437348,-0.399486261,10.85417291
41:44.2,1.42E+12,-6.8570905,-8.687933,4.075425,11.7944461,-2.363213684,-9.953503618,-0.181431711,10.83165674
41:44.3,1.42E+12,-7.3332505,-8.475974,2.821782,11.55773126,-2.546899708,-9.929792918,0.014771281,10.82147473
41:44.3,1.42E+12,-5.821544,-8.987011,-4.010011,11.43402508,-2.681745294,-9.930960478,0.038763395,10.84258997
41:44.3,1.42E+12,-1.2771442,-11.153457,-2.1505778,11.43047179,-2.718499863,-9.979016558,0.061249639,10.88399568
41:44.3,1.42E+12,-0.56717056,-9.762698,0.1167572,9.779856181,-2.730858163,-10.0006316,0.107272933,10.9005393
41:44.3,1.42E+12,-1.5841557,-7.313641,0.97492266,7.546480514,-2.731651513,-9.961272438,0.171390598,10.85806704
41:44.4,1.42E+12,-2.5750952,-5.903274,0.6264473,6.470872849,-2.711260917,-9.885074898,0.236154918,10.77386055
41:44.4,1.42E+12,-2.938689,-6.002368,-7.48E-04,6.683136629,-2.665369351,-9.809119858,0.275909258,10.68179475
41:44.4,1.42E+12,-2.931504,-6.2051964,-0.4843927,6.879884763,-2.604733445,-9.664529546,0.311672888,10.52192512
41:44.5,1.42E+12,-2.6096733,-6.242469,-1.0331515,6.844429558,-2.573092243,-9.503608186,0.408431678,10.3386871
41:44.5,1.42E+12,-2.1704865,-5.663323,-1.335373,6.210270533,-2.542334207,-9.427811806,0.422460508,10.25575714
41:44.5,1.42E+12,-1.6688795,-5.140909,-1.6461269,5.650118397,-2.482147363,-9.421569774,0.33776064,10.21602011
41:44.5,1.42E+12,-1.0166858,-6.1075993,-1.8311421,6.456740712,-2.402354299,-9.454713848,0.217677352,10.18731504
41:44.5,1.42E+12,-0.63887143,-7.4295,-2.2080584,7.776962701,-2.323573128,-9.475655294,0.090911956,10.16537024
41:44.5,1.42E+12,-0.7921527,-8.447983,-2.9009674,8.967247879,-2.285351608,-9.428760824,-0.036955142,10.11148851
41:44.5,1.42E+12,-0.8367599,-8.922945,-4.5455976,10.04895876,-2.32482153,-9.338723064,-0.117122438,10.04279608
41:44.6,1.42E+12,-0.8551717,-9.700578,-7.4461155,12.25875884,-2.375994116,-9.287191244,-0.207663152,10.03329368
41:44.6,1.42E+12,-1.8324894,-11.292666,-9.379046,14.79354003,-2.383834812,-9.314114244,-0.402378236,10.12803235
41:44.6,1.42E+12,-3.2567775,-11.610157,-7.686516,14.29982075,-2.37269797,-9.371313304,-0.58675283,10.22068199
41:44.6,1.42E+12,-3.0443692,-11.154354,-5.2956877,12.71739381,-2.345131294,-9.419342424,-0.724750866,10.27628679
41:44.6,1.42E+12,-2.6997857,-9.720037,-4.0448885,10.86872049,-2.325501114,-9.431721684,-0.822267078,10.29661104
41:44.7,1.42E+12,-3.270399,-8.456365,-4.1029677,9.951882364,-2.327000994,-9.412585464,-0.917244568,10.29641446
41:44.7,1.42E+12,-3.4826577,-6.7120423,-3.0036538,8.136482818,-2.339649692,-9.36543053,-1.011928668,10.26587783
41:44.7,1.42E+12,-3.9320233,-7.9947248,-2.0419037,9.140339303,-2.371967488,-9.342031186,-1.09882596,10.2540982
41:44.7,1.42E+12,-5.4341497,-13.769865,-5.0738487,15.64874135,-2.437725742,-9.433691566,-1.247703366,10.37252588
41:44.7,1.42E+12,-3.0714629,-17.261953,-4.2487645,18.04053507,-2.47369295,-9.590304866,-1.376327886,10.53805922
41:44.8,1.42E+12,-5.0960026,-11.032957,-0.9286688,12.18842928,-2.565700615,-9.613575466,-1.427692074,10.58148877
41:44.8,1.42E+12,-5.7526875,-4.6499305,3.0635293,8.006277468,-2.68212252,-9.507024036,-1.387186306,10.54098215
41:44.8,1.42E+12,-4.477489,-2.6668541,4.412075,6.828354439,-2.779962061,-9.360230298,-1.3158746,10.47653262
41:44.8,1.42E+12,-4.142186,-3.4245787,3.6516564,6.497694868,-2.864682878,-9.238096272,-1.266941356,10.41433437
41:44.8,1.42E+12,-3.4795144,-7.4227643,2.1466858,8.474238033,-2.931569788,-9.202895478,-1.245014956,10.39894573
41:44.9,1.42E+12,0.6608757,-16.237783,0.9656419,16.27988998,-2.915355506,-9.340363598,-1.240700928,10.53663247
41:44.9,1.42E+12,2.2854474,-14.424155,-2.0357666,14.74529969,-2.873110355,-9.440304778,-1.292975223,10.6426108
41:44.9,1.42E+12,0.050744478,-11.042387,-0.9515712,11.08342787,-2.881669556,-9.467284658,-1.324454761,10.66977649
41:44.9,1.42E+12,-3.0737083,-9.018446,-0.11511063,9.528551906,-2.954903268,-9.435302158,-1.337657306,10.64739159
41:44.9,1.42E+12,-4.286486,-8.185129,0.88600755,9.281988384,-3.04567151,-9.380935218,-1.322972843,10.61488252
41:45.0,1.42E+12,-3.4554145,-8.449479,1.1768527,9.204268956,-3.094143714,-9.341483258,-1.287757075,10.58918201
41:45.0,1.42E+12,-2.266886,-9.123677,0.8981323,9.443881393,-3.087784938,-9.331244548,-1.261325041,10.57835419
41:45.0,1.42E+12,-1.4929953,-10.156829,0.05957611,10.26614629,-3.055793466,-9.346192468,-1.260774186,10.58558376
41:45.0,1.42E+12,-1.056952,-10.069261,-0.42706192,10.13358508,-3.004587946,-9.355736628,-1.240344671,10.58119018
41:45.0,1.42E+12,-1.2657678,-9.756412,-0.4564009,9.848758552,-2.963345708,-9.341378498,-1.194743499,10.55164882
41:45.1,1.42E+12,-1.3856685,-9.518406,-0.21435425,9.621126635,-2.95297228,-9.295702478,-1.171206444,10.50336069
41:45.1,1.42E+12,-1.7137861,-9.543105,-0.24668701,9.698905625,-2.961336886,-9.218322398,-1.154103012,10.42694855
41:45.1,1.42E+12,-1.7914746,-9.55987,-0.6183641,9.745915545,-2.96827346,-9.118500978,-1.144663642,10.3286054
41:45.1,1.42E+12,-1.4326707,-9.023087,-1.9895128,9.350230239,-2.936895708,-9.023759998,-1.159985778,10.23287521
41:45.1,1.42E+12,-0.5641768,-9.048533,-4.161496,9.975584889,-2.862617164,-8.953008118,-1.21525085,10.16505352
41:45.2,1.42E+12,-0.35790575,-9.4976,-4.853657,10.67194868,-2.761732953,-8.927752638,-1.280790566,10.13563088
41:45.2,1.42E+12,-1.3371693,-8.699908,-2.3191273,9.102459688,-2.647203119,-8.905927998,-1.295448084,10.07414123
41:45.2,1.42E+12,-1.8512005,-7.3513627,-0.48753616,7.596523438,-2.535906559,-8.884549452,-1.315437515,10.00142902
41:45.2,1.42E+12,-0.8265811,-7.249275,-1.3708493,7.423910839,-2.412161881,-8.865416242,-1.395404225,9.927704926
41:45.2,1.42E+12,-0.8702902,-7.1819153,-0.79514647,7.27801967,-2.292425875,-8.835295888,-1.492815654,9.837376397
41:45.3,1.42E+12,-1.6566051,-7.5579333,-0.61028093,7.761387701,-2.178892967,-8.816935074,-1.561456913,9.761449526
41:45.3,1.42E+12,-1.8646724,-8.163125,-0.5379813,8.390651751,-2.099755535,-8.800457354,-1.492016319,9.70058206
41:45.3,1.42E+12,-1.1466156,-8.162975,-1.0105486,8.304823698,-2.097144963,-8.740647714,-1.469215735,9.638069098
41:45.3,1.42E+12,-0.5221143,-7.971074,-1.234932,8.083048998,-2.096243838,-8.704815234,-1.496249519,9.604132954
41:45.3,1.42E+12,-0.24459137,-7.219637,-0.42526567,7.236285942,-2.069452551,-8.702935154,-1.524253286,9.597929063
41:45.4,1.42E+12,-0.20537293,-7.7218423,-1.2900174,7.831549747,-2.022058106,-8.73930652,-1.56258258,9.625142601
41:45.4,1.42E+12,-0.80772036,-9.834848,-0.6059399,9.886546947,-1.979438733,-8.81595612,-1.574686418,9.689210807
41:45.4,1.42E+12,-0.8147557,-9.24268,0.21824616,9.281087858,-1.937103767,-8.876705792,-1.56063364,9.737234869
41:45.5,1.42E+12,0.045205995,-9.025182,0.005688171,9.025297007,-1.884006181,-8.932360052,-1.539856847,9.780852218
41:45.5,1.42E+12,0.05598358,-9.092392,0.23411316,9.095577794,-1.83947678,-9.000941432,-1.508467124,9.838558363
41:45.5,1.42E+12,-0.70009416,-9.380243,-0.58273816,9.424365991,-1.820101073,-9.085728112,-1.487199349,9.914043315
41:45.5,1.42E+12,-1.0023156,-10.311458,-1.280587,10.43890347,-1.819813669,-9.169805286,-1.476188247,9.99368657
41:45.5,1.42E+12,-0.9476793,-10.548115,-1.4852115,10.6942358,-1.825989826,-9.232177586,-1.461731309,10.05203203
41:45.5,1.42E+12,-0.84050214,-10.80079,-1.8907182,10.99719618,-1.826956815,-9.279233726,-1.441526325,10.092631
41:45.5,1.42E+12,-1.2817845,-11.985725,-3.059787,12.43635283,-1.835857307,-9.340489326,-1.411810113,10.14037888
41:45.6,1.42E+12,-1.346001,-12.265793,-4.2499623,13.05080749,-1.845673893,-9.391793626,-1.347887049,10.15621985
41:45.6,1.42E+12,-1.135838,-13.612094,-5.698799,14.80052503,-1.831740865,-9.438182186,-1.274282109,10.15635955
41:45.6,1.42E+12,-1.730701,-16.031063,-5.7925043,17.13310868,-1.801219335,-9.526600306,-1.236401875,10.21302531
41:45.6,1.42E+12,-4.5532317,-17.41778,-5.436694,18.80607935,-1.831396585,-9.651868826,-1.239222001,10.33479902
41:45.6,1.42E+12,-4.7368994,-16.30185,-2.0863614,17.10384265,-1.872138859,-9.783505086,-1.200051459,10.45950147
41:45.7,1.42E+12,-4.0107594,-12.58448,0.6474037,13.22401071,-1.886946067,-9.866067386,-1.105044031,10.52494403
41:45.7,1.42E+12,-3.7384758,-9.922865,1.6051122,10.72454364,-1.892062429,-9.93028384,-1.012868711,10.57670525
41:45.7,1.42E+12,-2.8960276,-8.17959,-0.13636643,8.67820628,-1.871342515,-9.933981144,-0.974757966,10.56746259
41:45.8,1.42E+12,-3.143014,-7.334897,-2.0411553,8.23684199,-1.825519801,-9.805281784,-0.914104098,10.4192246
41:45.8,1.42E+12,-3.2540832,-8.6909275,-2.4768991,9.605014702,-1.829172207,-9.633861274,-0.87866679,10.25051419
41:45.8,1.42E+12,-4.069138,-7.432644,-1.5690372,8.617653894,-1.808634915,-9.561855014,-0.891474158,10.17909869
41:45.8,1.42E+12,-2.9572504,-5.957761,-0.3820056,6.662294975,-1.752726173,-9.588011624,-0.960384856,10.15221904
41:45.8,1.42E+12,-2.248175,-4.74618,-0.07918534,5.252312418,-1.708139893,-9.629598142,-1.050210062,10.1206982
41:45.8,1.42E+12,-2.295776,-4.0008802,-0.32422578,4.624148805,-1.671211693,-9.641124172,-1.129727706,10.08322727
41:45.8,1.42E+12,-2.5768914,-3.8977447,-0.47331575,4.69646791,-1.653159233,-9.57062378,-1.182127737,10.00767187
41:45.9,1.42E+12,-3.095413,-4.1800575,-0.3161426,5.210989204,-1.728285007,-9.32946927,-1.207763427,9.786293856
41:45.9,1.42E+12,-2.9984148,-4.019891,-0.2917433,5.023457885,-1.833962251,-9.12138399,-1.172882961,9.59185702
41:45.9,1.42E+12,-2.8523185,-3.8776863,-0.40909928,4.831100712,-1.892023511,-8.978089976,-1.162033523,9.466810477
41:45.9,1.42E+12,-2.506837,-5.1483936,-0.3984714,5.74011915,-1.880686085,-8.900688928,-1.167700738,9.391041822
41:46.0,1.42E+12,-2.1826112,-9.070388,-0.23111938,9.332156572,-1.838608589,-8.918394108,-1.190043277,9.392045186
41:46.0,1.42E+12,-0.20148101,-11.735895,-0.61626846,11.75379143,-1.773529919,-8.984122428,-1.2259057,9.443035635
41:46.0,1.42E+12,1.6983682,-12.762909,-2.4306455,13.10283703,-1.694224835,-9.056907068,-1.292481256,9.516214748
41:46.0,1.42E+12,1.2642709,-11.422747,-4.949308,12.51292051,-1.639079511,-9.082225428,-1.392658938,9.561150232
41:46.0,1.42E+12,0.02350113,-10.136321,-5.864954,11.71081727,-1.617470448,-9.083566628,-1.50141678,9.592694876
41:46.0,1.42E+12,-0.13576767,-9.112001,-4.8210244,10.30966883,-1.594870446,-9.070678408,-1.58870925,9.601913082
41:46.1,1.42E+12,-0.6652167,-8.879086,-3.411855,9.535273252,-1.58046141,-9.057892008,-1.652659265,9.600196014
41:46.1,1.42E+12,-1.7747095,-9.150621,-2.0007393,9.533436749,-1.581679878,-9.050042328,-1.68774031,9.596886636
41:46.1,1.42E+12,-3.266208,-8.710686,-1.3582754,9.40154654,-1.611174546,-9.033058648,-1.702538536,9.589999256
41:46.1,1.42E+12,-4.294719,-7.8173437,-1.9016455,9.119853585,-1.668415512,-9.008943782,-1.70078119,9.585391723
41:46.1,1.42E+12,-4.187542,-7.7803707,-0.21435425,8.838304361,-1.740882816,-8.983580536,-1.621838355,9.562646113
41:46.2,1.42E+12,-3.8800814,-8.071066,0.14355148,8.956435958,-1.811326329,-8.955049856,-1.521894186,9.528335858
41:46.2,1.42E+12,-3.2287858,-8.431367,-3.2289355,9.588484327,-1.849158659,-8.949679036,-1.54009035,9.538056351
41:46.2,1.42E+12,-1.6182847,-10.200238,-6.6383953,12.27729583,-1.844500343,-9.006656542,-1.663107533,9.631671799
41:46.2,1.42E+12,-1.2020004,-12.366982,-6.1152334,13.84857857,-1.852008729,-9.109010682,-1.757995215,9.760165153
41:46.3,1.42E+12,-1.6839981,-13.201198,-3.4516723,13.74850973,-1.868282887,-9.229396336,-1.811125731,9.889574955
41:46.3,1.42E+12,-2.7364595,-13.843063,0.39742357,14.11653461,-1.889879975,-9.35509893,-1.790971641,10.01667789
41:46.3,1.42E+12,-3.6488123,-15.206279,2.253414,15.79945021,-1.925562773,-9.49596201,-1.735143735,10.16485386
41:46.3,1.42E+12,-2.2975721,-18.868263,-8.669072,20.89121814,-1.948581903,-9.71006777,-1.888314203,10.41658175
41:46.3,1.42E+12,-0.8068222,-14.387181,-1.5395485,14.49179591,-1.954276061,-9.83838991,-1.894406533,10.54475669
41:46.3,1.42E+12,-3.6838393,-9.014704,6.4208975,11.66462536,-2.023061019,-9.87429125,-1.75748327,10.63332348
41:46.4,1.42E+12,-3.3334181,-7.561376,6.5066695,10.51773888,-2.085621923,-9.871081924,-1.601549532,10.68704726
41:46.4,1.42E+12,-3.2918046,-10.443183,5.6511984,12.32201656,-2.135303608,-9.883248624,-1.476406766,10.73575665
41:46.4,1.42E+12,-4.3728566,-12.3156395,2.3691235,13.28192747,-2.206465626,-9.944707814,-1.433389219,10.81577344
41:46.4,1.42E+12,0.49996033,-12.149485,-3.5145414,12.65748582,-2.197370539,-10.00719387,-1.50379381,10.88841722
41:46.5,1.42E+12,1.5178436,-10.722353,-1.8854791,10.99216696,-2.168133338,-10.03979309,-1.546185656,10.926349
41:46.5,1.42E+12,-1.1023078,-8.277038,1.4465919,8.474495186,-2.176177611,-10.01772899,-1.505599054,10.90735159
41:46.5,1.42E+12,-1.7229172,-7.4052505,1.8022522,7.813724569,-2.190589643,-9.959604844,-1.44394227,10.85484801
41:46.5,1.42E+12,-1.7112415,-8.528814,0.20701951,8.701256966,-2.205860887,-9.919218824,-1.41009765,10.81498843
41:46.5,1.42E+12,-1.8522482,-9.755064,-1.0924283,9.989269074,-2.226095808,-9.898304304,-1.394131852,10.79482989
41:46.5,1.42E+12,-1.9263442,-9.562715,-1.3982424,9.854511756,-2.238987002,-9.849844104,-1.36090096,10.74319307
41:46.6,1.42E+12,-1.800905,-9.10766,-1.1542497,9.355480846,-2.248085082,-9.786681444,-1.298986708,10.66928654
41:46.6,1.42E+12,-1.015638,-8.92504,-1.7685722,9.155091871,-2.245681082,-9.692940364,-1.220382172,10.55637787
41:46.6,1.42E+12,-0.002694397,-9.062454,-2.1639001,9.317217578,-2.21112095,-9.553568184,-1.147810088,10.40006005
41:46.6,1.42E+12,0.10523117,-8.457862,-1.8654208,8.661772219,-2.117951693,-9.374369824,-1.076384624,10.19717391
41:46.6,1.42E+12,0.14879058,-8.38182,-0.9610016,8.438042974,-2.020237893,-9.215969224,-1.053877428,10.02385792
41:46.7,1.42E+12,0.010777588,-8.979976,-1.2798386,9.070726099,-1.939807154,-9.143879144,-1.092422274,9.940792223
41:46.7,1.42E+12,0.15986755,-9.38219,-2.9657826,9.841082931,-1.861840287,-9.133065644,-1.18384017,9.923123009
41:46.7,1.42E+12,0.15028748,-8.714877,-3.1063404,9.253162602,-1.800913985,-9.143771384,-1.24323965,9.934622136
41:46.8,1.42E+12,-0.59276736,-8.0436735,-1.5741266,8.217659708,-1.749909052,-9.157946914,-1.233899076,9.93423849
41:46.8,1.42E+12,-1.7929715,-7.9101505,0.1287323,8.11183085,-1.720686818,-9.142331374,-1.181786448,9.904374813
41:46.8,1.42E+12,-1.9728973,-8.447534,-0.8557704,8.716966067,-1.678762004,-9.162629174,-1.167521112,9.906361056
41:46.8,1.42E+12,-1.1663746,-9.174272,-1.7437239,9.411071643,-1.642944488,-9.226959394,-1.194755478,9.96133659
41:46.8,1.42E+12,-0.9620494,-8.977282,-1.3750405,9.132790786,-1.617221976,-9.311581434,-1.220672581,10.03894616
41:46.8,1.42E+12,-1.0002201,-8.374036,-1.6515156,8.593743245,-1.591310858,-9.39904455,-1.247218377,10.11833805
41:46.8,1.42E+12,-1.5218853,-7.6938505,-1.1114388,7.921285665,-1.570210736,-9.474966666,-1.259980838,10.1828344
41:46.9,1.42E+12,-1.3569282,-8.551867,-1.0713222,8.724873328,-1.53544104,-9.562402856,-1.27508443,10.25311208
41:46.9,1.42E+12,-0.19354752,-9.238638,-1.2121793,9.319832155,-1.479343695,-9.666777796,-1.29349315,10.33903957
41:46.9,1.42E+12,-0.5040019,-9.490265,-0.13142669,9.504547367,-1.432377363,-9.77902937,-1.287939698,10.4325085
41:46.9,1.42E+12,-1.5600559,-9.19957,-0.057031404,9.33108328,-1.413441741,-9.860052898,-1.281110898,10.50432778
41:46.9,1.42E+12,-1.3135185,-9.832603,-0.90816146,9.961434126,-1.396059887,-9.875297198,-1.29465174,10.51691334
41:47.0,1.42E+12,-1.5126045,-9.711505,-1.2524456,9.908073562,-1.422282356,-9.834809398,-1.307375283,10.47999898
41:47.0,1.42E+12,-1.5100598,-9.490714,-1.8473085,9.786035026,-1.486450916,-9.769365498,-1.295708543,10.41366294
41:47.0,1.42E+12,-1.1231145,-9.549242,-2.0013382,9.821138607,-1.534198624,-9.731895398,-1.236749147,10.3598273
41:47.0,1.42E+12,-0.9210347,-9.909693,-1.7431252,10.10390052,-1.553089341,-9.727362838,-1.154312571,10.32768897
41:47.1,1.42E+12,-0.41299117,-10.342592,-2.5969496,10.67164084,-1.558633811,-9.751974658,-1.109831075,10.33492841
41:47.1,1.42E+12,-0.21210891,-11.611653,-3.966751,12.27235059,-1.549571655,-9.806625998,-1.120928995,10.38966995
41:47.1,1.42E+12,-0.5340893,-13.410912,-4.889133,14.28430725,-1.524759251,-9.891831818,-1.178696869,10.48468736
41:47.1,1.42E+12,-2.9109964,-15.389348,-4.7909374,16.3786145,-1.517655019,-10.02540506,-1.247350109,10.62422872
41:47.1,1.42E+12,-4.5761337,-15.540683,-3.887865,16.66041182,-1.523283313,-10.17987184,-1.287074499,10.77503989
41:47.1,1.42E+12,-5.6015015,-13.895155,-1.8820363,15.09947721,-1.551562503,-10.30216753,-1.32042814,10.90026334
41:47.2,1.42E+12,-4.934938,-11.674522,-1.4608122,12.75860687,-1.572659635,-10.37423665,-1.352515413,10.97630676
41:47.2,1.42E+12,-3.6976109,-9.8221245,-1.6015196,10.61655882,-1.582036137,-10.4020518,-1.319967095,10.99686825
41:47.2,1.42E+12,-2.271227,-9.772279,-1.5943346,10.15863238,-1.595094983,-10.39349262,-1.219085881,10.95449498
41:47.2,1.42E+12,-2.4132814,-10.648855,-2.8973749,11.29676154,-1.619320603,-10.35913008,-1.154728711,10.90345864
41:47.2,1.42E+12,-3.0033545,-10.253528,-3.4262252,11.22024928,-1.645707731,-10.30017668,-1.154219769,10.85289343
41:47.3,1.42E+12,-2.9505143,-8.957822,-2.3174808,9.711788037,-1.649988827,-10.20247186,-1.208517857,10.7647985
41:47.3,1.42E+12,-2.6458979,-8.062235,-1.2386742,8.575238928,-1.629930539,-10.05959098,-1.278359621,10.62031428
41:47.4,1.42E+12,-2.7231371,-6.8638268,-1.2765454,7.493808255,-1.638441839,-9.819502256,-1.130509089,10.35236608
41:47.4,1.42E+12,-3.041076,-5.7067327,-2.1321661,6.808896653,-1.683126915,-9.64589329,-1.142361441,10.19870809
41:47.4,1.42E+12,-3.1805859,-5.187463,-2.4788451,6.57043165,-1.673061847,-9.56934847,-1.320356293,10.09682422
41:47.4,1.42E+12,-3.184328,-5.039271,-1.891317,6.253900944,-1.670080045,-9.51890637,-1.488316023,10.01154746
41:47.4,1.42E+12,-3.5506165,-4.867877,-1.3585749,6.176473895,-1.675256283,-9.40740025,-1.628511489,9.888636606
41:47.4,1.42E+12,-3.5774107,-4.9066467,-1.1150312,6.173843514,-1.659347365,-9.259220394,-1.698194583,9.746474927
41:47.4,1.42E+12,-3.2413595,-5.0398693,-1.0187814,6.078207755,-1.734173762,-9.11702808,-1.648279383,9.614889366
41:47.5,1.42E+12,-2.8475285,-4.8565006,-1.167123,5.749451516,-1.821481204,-8.999711032,-1.633912261,9.510035057
41:47.5,1.42E+12,-2.2570066,-4.598587,-1.361419,5.300428557,-1.84457518,-8.926142012,-1.690072479,9.446553724
41:47.5,1.42E+12,-1.6944764,-4.3637257,-1.1645782,4.823856822,-1.844006364,-8.865311516,-1.749409087,9.38675637
41:47.5,1.42E+12,-1.332529,-5.711074,-0.7734416,5.915252461,-1.836432114,-8.808956716,-1.769018309,9.331036279
41:47.5,1.42E+12,-0.873284,-8.673413,-0.7316785,8.74791812,-1.81685283,-8.787323696,-1.761803313,9.30620926
41:47.5,1.42E+12,-0.19220032,-12.209061,-1.9374211,12.36332124,-1.782169952,-8.840250616,-1.772586887,9.35638545
41:47.6,1.42E+12,1.3049862,-13.082944,-3.918701,13.71942529,-1.720052128,-8.919756296,-1.827875913,9.443664339
41:47.6,1.42E+12,2.3138883,-10.698253,-5.388794,12.20023758,-1.653461602,-8.955220556,-1.900280349,9.504567253
41:47.6,1.42E+12,1.2799883,-10.377919,-5.6794896,11.8994191,-1.627807948,-8.981529856,-1.970592139,9.556211284
41:47.6,1.42E+12,-1.2518468,-9.898167,-5.0751963,11.19367892,-1.654949508,-9.010335956,-2.034787649,9.606849418
41:47.6,1.42E+12,-2.4037015,-9.509575,-3.911067,10.55965164,-1.705999349,-9.032891056,-2.093788957,9.649281591
41:47.7,1.42E+12,-2.5288413,-9.03117,-3.0488598,9.861674096,-1.756791727,-9.033914936,-2.129169381,9.665100551
41:47.7,1.42E+12,-1.8779947,-8.866363,-2.51507,9.405574626,-1.797548972,-9.023598396,-2.120155129,9.656390385
41:47.7,1.42E+12,-1.7070502,-8.956625,-3.0099409,9.601817328,-1.834695726,-9.028433356,-2.118227139,9.663363479
41:47.7,1.42E+12,-2.4324417,-8.975934,-3.106939,9.80495965,-1.871489212,-9.047078566,-2.148883387,9.695109478
41:47.8,1.42E+12,-2.9047096,-8.87699,-2.6161098,9.699604106,-1.893723974,-9.066415356,-2.203780229,9.726864943
41:47.8,1.42E+12,-2.744842,-8.505013,-2.3129902,9.231431492,-1.909162868,-9.067564936,-2.232924625,9.737154252
41:47.8,1.42E+12,-3.0273046,-8.912018,-3.5467246,10.05822516,-1.946381468,-9.062319856,-2.268984639,9.750097322
41:47.8,1.42E+12,-3.1904655,-10.388846,-5.5639296,12.20919751,-1.99094979,-9.090551136,-2.352762421,9.811625457
41:47.8,1.42E+12,-3.0195208,-12.565769,-6.6853976,14.55027826,-2.031335804,-9.174385796,-2.453440061,9.930756157
41:47.8,1.42E+12,-2.8264225,-14.311589,-2.899171,14.87331289,-2.057426548,-9.306740566,-2.489194705,10.0697967
41:47.9,1.42E+12,-4.1713758,-14.679673,2.3921754,15.44718999,-2.1137155,-9.429296686,-2.419924753,10.20424303
41:47.9,1.42E+12,-2.7369087,-15.312108,-3.8854702,16.03272277,-2.164582724,-9.550766086,-2.473390571,10.33850085
41:47.9,1.42E+12,-0.71341646,-13.737233,-2.808909,14.03960481,-2.168771015,-9.635705446,-2.526940217,10.429202
41:47.9,1.42E+12,-2.3400838,-10.5885315,5.637277,12.22177906,-2.184371573,-9.663484676,-2.413054049,10.48701591
41:47.9,1.42E+12,-3.290158,-9.681268,7.1063223,12.45198403,-2.223904363,-9.660457976,-2.252764374,10.53682691
41:48.0,1.42E+12,-3.5905833,-10.413245,4.8771577,12.04635327,-2.265463939,-9.674492776,-2.130172308,10.5795925
41:48.0,1.42E+12,-3.974535,-11.581416,2.9892838,12.60404469,-2.314753443,-9.716306816,-2.033440462,10.6359527
41:48.0,1.42E+12,-0.925226,-12.141402,-2.6764343,12.46727662,-2.310795673,-9.768150016,-2.046942384,10.68887546
41:48.1,1.42E+12,1.0662328,-10.873388,-3.7206628,11.54169618,-2.271050323,-9.787423916,-2.086493136,10.71763137
41:48.1,1.42E+12,-1.1963123,-8.609646,0.82777864,8.731688545,-2.286716746,-9.752764996,-2.017998571,10.67883232
41:48.1,1.42E+12,-1.669628,-7.8607535,2.3893313,8.383794326,-2.315867128,-9.677747006,-1.890876925,10.6010612
41:48.1,1.42E+12,-0.818947,-8.273445,1.0184821,8.376029617,-2.321564282,-9.574997666,-1.772724623,10.48289565
41:48.1,1.42E+12,-0.8202942,-9.656868,-1.5849042,9.820382043,-2.279750238,-9.460348066,-1.708603959,10.351731
41:48.1,1.42E+12,-1.1280541,-9.496102,-2.7099645,9.939434936,-2.210788646,-9.339456446,-1.685045949,10.21731146
41:48.1,1.42E+12,-0.97402453,-9.191636,-2.4634273,9.565739397,-2.118239106,-9.245386066,-1.696673769,10.1066367
41:48.2,1.42E+12,-0.60519147,-8.765173,-2.2050645,9.058522169,-2.031644176,-9.187199086,-1.711558815,10.03263501
41:48.2,1.42E+12,0.11600876,-8.410261,-1.7904267,8.599510212,-1.955371782,-9.158961816,-1.715336957,9.992294037
41:48.2,1.42E+12,0.56627244,-8.660541,-1.8290465,8.869670004,-1.898621794,-9.136727056,-1.720031195,9.96651479
41:48.2,1.42E+12,0.28770173,-9.642947,-2.626139,9.998290113,-1.844602131,-9.116608896,-1.714606477,9.940545361
41:48.2,1.42E+12,-0.48214737,-9.516161,-2.6331742,9.885514283,-1.794177988,-9.101861556,-1.698745457,9.913850661
41:48.3,1.42E+12,-0.943488,-8.72805,-1.8357825,8.968786083,-1.754037462,-9.097266116,-1.689111491,9.898990622
41:48.3,1.42E+12,-1.2560381,-7.7314224,-0.8479866,7.878553504,-1.726240266,-9.090649864,-1.681297739,9.885056914
41:48.3,1.42E+12,-1.364263,-6.837781,-0.2612068,6.977441618,-1.699062784,-9.090128948,-1.660990967,9.874729581
41:48.3,1.42E+12,-1.2464579,-7.1600604,-1.4650035,7.413929962,-1.663170422,-9.119195502,-1.647647715,9.886830247
41:48.4,1.42E+12,-1.0003697,-8.603808,-2.3839426,8.983842939,-1.619566098,-9.187522402,-1.645749665,9.935098473
41:48.4,1.42E+12,-2.0698957,-8.97309,-0.23725662,9.211791523,-1.597277452,-9.266198782,-1.612668458,9.994256284
41:48.4,1.42E+12,-2.2326074,-8.195907,-0.17064515,8.496266658,-1.57091727,-9.332759382,-1.588909863,10.04065214
41:48.4,1.42E+12,-1.5003301,-6.831344,-0.43319917,7.007561115,-1.529375658,-9.371253328,-1.575273222,10.05732649
41:48.4,1.42E+12,-0.49352372,-7.5999956,-0.9327104,7.672903458,-1.474418943,-9.422455854,-1.573551802,10.08922041
41:48.4,1.42E+12,-0.0796344,-10.197844,-1.6762143,10.33499193,-1.419061061,-9.529282722,-1.583733628,10.18093121
41:48.5,1.42E+12,-0.48274612,-10.099348,-0.809816,10.14325765,-1.383575851,-9.639297942,-1.572701568,10.2777878
41:48.5,1.42E+12,-1.0033635,-9.12233,0.11870316,9.178111646,-1.369753593,-9.734470028,-1.547035941,10.36487289
41:48.5,1.42E+12,-0.69859725,-9.146879,-0.5481601,9.189881014,-1.357074958,-9.803186128,-1.542530311,10.43036546
41:48.5,1.42E+12,-0.5828879,-9.501641,-0.6397696,9.540977158,-1.351267036,-9.819750688,-1.540692133,10.44622664
41:48.5,1.42E+12,-0.30446684,-10.163864,-1.1865824,10.237422,-1.353512367,-9.778846748,-1.525675359,10.40370866
41:48.6,1.42E+12,0.42526567,-11.418106,-1.8946102,11.58203537,-1.371106777,-9.745549988,-1.485193543,10.36096086
41:48.6,1.42E+12,0.41403902,-11.371852,-2.52944,11.65712284,-1.409103763,-9.759021968,-1.428006463,10.35009857
41:48.6,1.42E+12,-0.22348526,-12.26744,-3.9944434,12.90331771,-1.439173234,-9.796812388,-1.394305539,10.37017654
41:48.6,1.42E+12,-0.6119275,-14.03676,-4.607419,14.78625701,-1.426374848,-9.879584248,-1.384949993,10.4420281
41:48.6,1.42E+12,-2.0779788,-16.039146,-6.245612,17.33723939,-1.419860394,-10.01017567,-1.431640893,10.57757986
41:48.7,1.42E+12,-4.584367,-15.793208,-5.773943,17.42929309,-1.460970908,-10.14541643,-1.486142557,10.72893224
41:48.7,1.42E+12,-6.3975463,-13.635445,-3.4712815,15.45651171,-1.55136194,-10.24079807,-1.505266787,10.84995098
41:48.7,1.42E+12,-6.1508594,-11.887679,-2.0059786,13.5341765,-1.640238124,-10.29941915,-1.485187541,10.92859816
41:48.8,1.42E+12,-4.1041656,-10.10833,-0.984353,10.95406142,-1.673672602,-10.32206707,-1.442735821,10.9515802
41:48.8,1.42E+12,-2.9431796,-9.922417,-1.9164647,10.52565923,-1.674442002,-10.34297561,-1.428742919,10.9681013
41:48.8,1.42E+12,-2.775678,-10.362501,-3.6054025,11.31745301,-1.675058722,-10.38012537,-1.454591165,11.00982173
41:48.8,1.42E+12,-3.591781,-9.407187,-3.1343322,10.54609389,-1.68634825,-10.39002875,-1.446343317,11.0195791
41:48.8,1.42E+12,-3.6332445,-7.989935,-1.9035915,8.981268702,-1.69520383,-10.34205053,-1.373136555,10.95502053
41:48.8,1.42E+12,-3.0097911,-6.9846253,-1.3268409,7.720384694,-1.695009236,-10.23042765,-1.265965421,10.81842266
41:48.9,1.42E+12,-2.796335,-5.460495,-1.1529025,6.242249535,-1.694407486,-10.05340577,-1.231040051,10.64580139
41:48.9,1.42E+12,-2.9099488,-3.8414617,-0.85367477,4.894220124,-1.669178946,-9.836641548,-1.295957054,10.43474199
41:48.9,1.42E+12,-3.4220338,-3.0897248,-0.9195378,4.701304546,-1.682881448,-9.592193884,-1.236638406,10.20811363
41:48.9,1.42E+12,-3.87589,-3.4126034,-0.73497164,5.216183334,-1.746130919,-9.385701292,-1.195159659,10.0316452
41:48.9,1.42E+12,-3.4861007,-3.6377354,-0.53962785,5.067269003,-1.769051257,-9.24668537,-1.318697756,9.888554996
41:48.9,1.42E+12,-3.3811688,-3.3687446,-0.7345226,4.829106137,-1.770871473,-9.120434902,-1.475514654,9.736097438
41:49.0,1.42E+12,-3.1669643,-2.8906388,-0.6828799,4.341863714,-1.762399093,-8.969982778,-1.586715406,9.582007647
41:49.0,1.42E+12,-2.2923331,-2.6461973,0.25776398,3.510497609,-1.728755055,-8.791278404,-1.641345802,9.400136705
41:49.1,1.42E+12,-2.1427941,-5.6223083,0.20806733,6.020399421,-1.753106417,-8.66089653,-1.58365577,9.271199161
41:49.1,1.42E+12,-0.1924997,-11.982582,-0.27048752,11.98718028,-1.778281067,-8.68308041,-1.514652264,9.280108843
41:49.1,1.42E+12,2.2484744,-14.801371,-3.0029054,15.26937004,-1.709385333,-8.80691491,-1.591265945,9.410862473
41:49.1,1.42E+12,3.1421158,-13.915812,-6.3703027,15.62381105,-1.613150457,-8.92801608,-1.766458625,9.555662808
41:49.1,1.42E+12,2.4397764,-10.563832,-6.8975067,12.850006,-1.547975989,-8.97382382,-1.924778401,9.645142335
41:49.1,1.42E+12,0.7981403,-9.692644,-5.5591397,11.20216095,-1.515607299,-8.97453934,-2.004263111,9.672777914
41:49.1,1.42E+12,-1.377286,-9.801767,-4.552483,10.89479943,-1.520591937,-8.98065264,-2.041113481,9.691885204
41:49.1,1.42E+12,-2.7057734,-9.893526,-3.4281712,10.81459311,-1.555226914,-8.99469044,-2.060408359,9.716862278
41:49.2,1.42E+12,-3.3259337,-8.951086,-2.3174808,9.826214572,-1.609641759,-8.9984087,-2.062656685,9.732216126
41:49.2,1.42E+12,-2.585274,-8.198601,-2.6738896,9.002798765,-1.663667414,-8.9941755,-2.080325943,9.740281897
41:49.2,1.42E+12,-2.1794677,-7.854766,-3.8971457,9.03521848,-1.718582217,-8.97806,-2.121687927,9.743592866
41:49.2,1.42E+12,-2.7322683,-7.750882,-4.9734077,9.606052571,-1.778981617,-8.9402187,-2.168633301,9.735748116
41:49.2,1.42E+12,-4.0351586,-9.839639,-6.221662,12.32112327,-1.850041842,-8.94668826,-2.240403057,9.784460295
41:49.3,1.42E+12,-4.791386,-12.155024,-3.5983672,13.55176132,-1.926999802,-9.01522774,-2.275654751,9.8761198
41:49.3,1.42E+12,-4.574487,-12.648697,1.8500029,13.57711228,-1.99336878,-9.113573232,-2.221694961,9.990090976
41:49.3,1.42E+12,-5.181475,-12.679683,2.6354196,13.94874477,-2.06971302,-9.230411272,-2.163762433,10.12951704
41:49.3,1.42E+12,-2.918032,-17.271982,-8.807086,19.60614793,-2.103144502,-9.432649704,-2.310604083,10.3733614
41:49.4,1.42E+12,1.3244458,-16.906593,-5.250781,17.75268275,-2.056648192,-9.598705404,-2.367940851,10.54873819
41:49.4,1.42E+12,-2.1478834,-9.749376,5.8582177,11.57507884,-2.058207946,-9.614231124,-2.246031365,10.59600394
41:49.4,1.42E+12,-3.969745,-8.988808,7.2057157,12.18523218,-2.092950698,-9.630089144,-2.098504148,10.66978325
41:49.4,1.42E+12,-3.2747402,-11.277248,5.40047,12.92537512,-2.1284389,-9.719007224,-1.981830764,10.78813953
41:49.4,1.42E+12,-2.994373,-12.399016,-0.046403505,12.75554862,-2.178455886,-9.814987632,-1.964104626,10.88979243
41:49.4,1.42E+12,1.1529025,-13.144615,-2.981949,13.52782715,-2.153805148,-9.873923052,-1.99021932,10.95364914
41:49.5,1.42E+12,1.8717078,-11.668535,-0.92118436,11.85354714,-2.106716069,-9.905306792,-1.992446688,10.98785493
41:49.5,1.42E+12,0.21854553,-9.262738,0.43454635,9.275500414,-2.082277889,-9.908114952,-1.986129824,10.9898027
41:49.5,1.42E+12,-1.7580941,-7.620353,0.22064118,7.82364092,-2.103467826,-9.877584432,-1.970753798,10.9624779
41:49.5,1.42E+12,-2.3040087,-7.5299416,-0.8652008,7.921934676,-2.137890242,-9.838150444,-1.975262422,10.93009705
41:49.5,1.42E+12,-1.3769865,-7.9209285,-2.023492,8.290459577,-2.159340635,-9.793291734,-1.992000614,10.8911578
41:49.6,1.42E+12,-0.50070876,-8.914862,-3.203189,9.486089474,-2.177860123,-9.743226854,-2.01817219,10.84923889
41:49.6,1.42E+12,-0.05463638,-9.083561,-3.8064344,9.84901053,-2.187233631,-9.697461034,-2.043712078,10.81307664
41:49.6,1.42E+12,0.10972183,-8.33362,-5.3313136,9.893642701,-2.18056949,-9.618784634,-2.070449482,10.75288314
41:49.6,1.42E+12,0.2694397,-8.621621,-5.6193147,10.29473866,-2.162942146,-9.510481854,-2.090687396,10.66305277
41:49.7,1.42E+12,-0.048349455,-7.9655356,-2.930606,8.487670269,-2.122349559,-9.349009646,-2.024387276,10.48606139
41:49.7,1.42E+12,-0.9298663,-7.2724767,-0.07095245,7.332025841,-2.049259545,-9.17859502,-1.910327465,10.28411605
41:49.7,1.42E+12,-1.0006691,-6.5922914,0.3079097,6.674912204,-1.941322001,-9.037731948,-1.834743641,10.10848406
41:49.7,1.42E+12,-0.16884887,-7.0418067,-1.7410295,7.255807003,-1.82168179,-8.940814502,-1.829444659,9.982916665
41:49.7,1.42E+12,-0.17992584,-8.343799,-1.0820998,8.415598317,-1.743196995,-8.905523882,-1.831399595,9.932147403
41:49.7,1.42E+12,-1.0895842,-9.577833,-0.54621416,9.655072688,-1.706125087,-8.898632202,-1.803994584,9.914735672
41:49.8,1.42E+12,-1.3843213,-9.101673,-0.99108905,9.259538561,-1.678297953,-8.873415642,-1.751708315,9.873577383
41:49.8,1.42E+12,-1.7031583,-7.668104,-0.73691756,7.889462253,-1.640525499,-8.838633982,-1.703760023,9.820444751
41:49.8,1.42E+12,-0.29847932,-8.668175,-0.32811767,8.679516631,-1.573830195,-8.852198782,-1.672250546,9.814409709
41:49.8,1.42E+12,0.15313156,-9.744885,-0.15358062,9.747298084,-1.510571742,-8.907403976,-1.64878534,9.854947977
41:49.9,1.42E+12,-0.6930588,-10.623708,-0.83975375,10.67935806,-1.468506218,-9.010668236,-1.642522365,9.943690147
41:49.9,1.42E+12,-1.0566527,-9.758357,-0.4604425,9.826192221,-1.431440296,-9.129006142,-1.63465772,10.04232959
41:49.9,1.42E+12,-1.3976436,-9.801019,-1.1924204,9.971722393,-1.390952492,-9.263232026,-1.640115372,10.14773795
41:49.9,1.42E+12,-0.83571213,-10.438394,-2.0219953,10.66522147,-1.330148935,-9.403747838,-1.665855845,10.25671871
41:49.9,1.42E+12,-0.5783972,-11.706556,-2.4182212,11.96769779,-1.271994865,-9.56512425,-1.703427712,10.39472728
41:49.9,1.42E+12,-0.11660752,-11.707903,-3.155139,12.1261491,-1.206703639,-9.731907418,-1.75184004,10.54066814
41:50.0,1.42E+12,-0.138013,-11.72407,-3.2289355,12.16136873,-1.146124613,-9.908576042,-1.802761152,10.69705824
41:50.0,1.42E+12,0.46164,-12.890294,-4.0299196,13.51343934,-1.091045151,-10.11345798,-1.888514824,10.89711708
41:50.0,1.42E+12,0.06960525,-15.480658,-5.494025,16.42680516,-1.046797164,-10.31062497,-2.00255667,11.10524519
41:50.1,1.42E+12,-2.3974144,-15.898439,-5.206174,16.90006527,-1.090895458,-10.38894211,-2.1012704,11.20350289
41:50.1,1.42E+12,-4.354894,-13.83483,-3.2370186,14.86088531,-1.222962826,-10.36961129,-2.105952664,11.1953332
41:50.1,1.42E+12,-4.52509,-11.560909,-1.2207115,12.47482236,-1.376306942,-10.32251323,-2.00296084,11.13235343
41:50.1,1.42E+12,-3.9264848,-9.69938,-0.4604425,10.47412347,-1.503632166,-10.30522419,-1.874219556,11.08483577
41:50.1,1.42E+12,-3.1716046,-8.309221,-0.49876282,8.907917474,-1.583027064,-10.27755573,-1.773012018,11.0389509
41:50.1,1.42E+12,-3.208877,-8.812325,-2.0175047,9.5929291,-1.619658884,-10.25776689,-1.722312452,11.0129135
41:50.1,1.42E+12,-3.4618511,-9.38683,-2.7057734,10.36427519,-1.634780438,-10.24763297,-1.707864496,11.00390714
41:50.2,1.42E+12,-3.8737943,-8.631202,-2.5514443,9.798663085,-1.64573765,-10.24123529,-1.712543766,11.00335611
41:50.2,1.42E+12,-3.5929785,-7.2509217,-1.6215779,8.253173625,-1.66589174,-10.2222817,-1.691497532,10.98836361
41:50.2,1.42E+12,-3.2057335,-5.9073157,-1.0313553,6.799764688,-1.686417056,-10.1833327,-1.634181724,10.94365453
41:50.2,1.42E+12,-3.351231,-4.348008,-0.84708846,5.554591042,-1.69879631,-10.11527522,-1.55165534,10.8626253
41:50.2,1.42E+12,-3.648363,-3.773054,-0.54591477,5.276789934,-1.691060398,-9.993943518,-1.438140395,10.72173863
41:50.3,1.42E+12,-3.7133281,-3.8416114,0.017064514,5.342946278,-1.66949924,-9.827675266,-1.365831761,10.55756233
41:50.4,1.42E+12,-3.252287,-3.5964212,-0.064216465,4.849303036,-1.64305524,-9.64662975,-1.404116148,10.38300615
41:50.4,1.42E+12,-3.376828,-3.2590227,-0.26030868,4.700208177,-1.6069623,-9.458216544,-1.462030714,10.19803542
41:50.4,1.42E+12,-3.100203,-2.4809408,-0.3716771,3.988040842,-1.61060572,-9.16239572,-1.293322536,9.885673275
41:50.4,1.42E+12,-2.166894,-2.2329066,0.9196875,3.244553373,-1.680432516,-8.868921992,-1.169913166,9.595510687
41:50.4,1.42E+12,-1.6308587,-8.075108,-0.12753479,8.239134326,-1.670092022,-8.835436632,-1.289628215,9.528791797
41:50.4,1.42E+12,0.95216995,-12.846885,-1.3037888,12.94793215,-1.571653723,-8.912598172,-1.459818305,9.544045797
41:50.4,1.42E+12,2.4656725,-16.50333,-3.5618432,17.06241979,-1.456845469,-9.017119812,-1.639064569,9.62678669
41:50.4,1.42E+12,2.2341042,-12.263398,-6.9609747,14.27716081,-1.352275925,-9.014407452,-1.777355993,9.657218934
41:50.4,1.42E+12,2.4282503,-9.781559,-6.705905,12.10555483,-1.326768969,-8.947146332,-1.851835113,9.628773487
41:50.5,1.42E+12,0.45430526,-9.507778,-5.51558,11.00117532,-1.35511702,-8.903931192,-1.943723026,9.611726051
41:50.5,1.42E+12,-1.4124627,-9.623787,-3.1433134,10.22216935,-1.387737185,-8.911152172,-2.015280221,9.63065943
41:50.5,1.42E+12,-2.8252249,-9.28579,-1.728755,9.858822724,-1.409079801,-8.944460912,-2.054268145,9.671363066
41:50.5,1.42E+12,-4.076024,-8.728499,-1.8917661,9.817303368,-1.444520107,-8.96843206,-2.074799451,9.70927044
41:50.5,1.42E+12,-5.21276,-8.397837,-4.3833346,10.81249996,-1.521235577,-8.97797023,-2.121996303,9.759711247
41:50.6,1.42E+12,-4.8409333,-8.865015,-5.840704,11.66777397,-1.608040067,-8.97697329,-2.174746603,9.803344937
41:50.6,1.42E+12,-3.5884876,-10.576257,-3.547473,11.71831985,-1.678717092,-9.00682721,-2.169567375,9.840731124
41:50.6,1.42E+12,-3.0816417,-14.404097,0.85532135,14.75486701,-1.742544362,-9.12823675,-2.045834676,9.93795561
41:50.6,1.42E+12,-2.6981392,-16.34511,0.6780899,16.5801804,-1.80189594,-9.28270653,-1.919886584,10.06366444
41:50.7,1.42E+12,-1.083447,-17.240847,-5.549859,18.14446465,-1.822597891,-9.468212758,-1.972271644,10.25680033
41:50.7,1.42E+12,-0.18905686,-14.76784,-2.5583298,14.98899237,-1.807781702,-9.618120024,-2.022019191,10.40993966
41:50.7,1.42E+12,-2.304458,-11.022629,3.8080812,11.88740338,-1.83385748,-9.706726776,-1.952015761,10.51418949
41:50.7,1.42E+12,-3.4376016,-10.206376,5.1105227,11.92076583,-1.899232535,-9.770018162,-1.814984717,10.60748866
41:50.7,1.42E+12,-3.3510814,-11.445948,4.359085,12.69807443,-1.962655646,-9.832061142,-1.706161021,10.69313819
41:50.7,1.42E+12,-3.44793,-12.126284,0.9605525,12.64348235,-2.009822562,-9.883030162,-1.676025687,10.75290638
41:50.8,1.42E+12,-0.085472256,-12.17598,-1.2831317,12.2437013,-1.983845581,-9.944516302,-1.68186654,10.81258963
41:50.8,1.42E+12,0.29877868,-10.901081,-0.5008585,10.9166705,-1.943806842,-10.00917584,-1.677145359,10.8731338
41:50.8,1.42E+12,-0.72928345,-9.319321,1.0867401,9.410770547,-1.952422924,-10.02219876,-1.648848204,10.88775888
41:50.8,1.42E+12,-1.0361453,-8.247399,0.7370673,8.344846047,-1.976208462,-9.992249042,-1.631035245,10.85970984
41:50.8,1.42E+12,-1.352737,-7.680678,0.07873627,7.799289155,-1.989402026,-9.933388442,-1.612665445,10.80210846
41:50.9,1.42E+12,-1.4082714,-7.5320373,-0.37332368,7.671648115,-1.9964344,-9.888862048,-1.610923069,10.75901758
41:50.9,1.42E+12,-1.3073813,-7.938143,-1.4853612,8.181054825,-1.994629154,-9.851604528,-1.616781885,10.72320422
41:50.9,1.42E+12,-0.58962387,-8.575816,-2.6572742,8.997409769,-1.989707388,-9.814352968,-1.629487463,10.68984799
41:50.9,1.42E+12,0.18396744,-8.568631,-3.3015344,9.184520163,-1.974460096,-9.751594468,-1.647153727,10.63418444
41:51.0,1.42E+12,0.68273026,-7.9403877,-3.3644037,8.650727697,-1.95847334,-9.676244162,-1.651339021,10.56467601
41:51.0,1.42E+12,0.36658767,-7.2485266,-2.804418,7.780763761,-1.948381327,-9.586733294,-1.642848671,10.47706391
41:51.0,1.42E+12,-0.62989014,-9.298214,-3.1368768,9.833287407,-1.970211929,-9.514891694,-1.624987815,10.40346087
41:51.0,1.42E+12,-1.1728112,-9.207802,-2.45729,9.60194657,-1.995060258,-9.389434574,-1.564253115,10.2669637
41:51.0,1.42E+12,-1.1958632,-7.7751317,-0.6942563,7.897135782,-1.971029234,-9.226968428,-1.474014761,10.08690511
41:51.0,1.42E+12,-0.800685,-6.410719,-0.54351974,6.483350081,-1.899945054,-9.078486208,-1.420144783,9.919354405
41:51.1,1.42E+12,-1.0178833,-6.925798,0.30895752,7.007012138,-1.82980092,-8.985783988,-1.389551403,9.809998201
41:51.1,1.42E+12,-1.3639636,-8.801098,0.12049942,8.906977199,-1.778550496,-8.967818348,-1.377932565,9.778655275
41:51.1,1.42E+12,-1.4471905,-10.270741,-1.7962646,10.52658765,-1.744062214,-9.007048748,-1.4038826,9.811028679
41:51.1,1.42E+12,-1.3232483,-9.444011,-1.0294093,9.591663742,-1.70634964,-9.019682468,-1.384120692,9.811003372
41:51.1,1.42E+12,-1.5786172,-8.577912,0.16525635,8.723526592,-1.668684962,-9.003504108,-1.326700097,9.7781884
41:51.2,1.42E+12,-1.0092014,-9.034014,-0.65099627,9.113489593,-1.611393104,-9.011560348,-1.288691137,9.76448493
41:51.2,1.42E+12,-0.84993255,-9.298813,-0.38529876,9.345521049,-1.556532185,-9.052518174,-1.263965554,9.786331878
41:51.2,1.42E+12,-0.95127183,-9.943822,-0.58977354,10.00661516,-1.511442952,-9.1332483,-1.255133919,9.850468888
41:51.2,1.42E+12,-0.7405101,-10.426718,-2.0377126,10.64974535,-1.459228534,-9.2548225,-1.278946401,9.952371974
41:51.2,1.42E+12,-0.5243596,-10.683434,-1.9857706,10.87906245,-1.396748466,-9.3930301,-1.307743518,10.06441742
41:51.3,1.42E+12,-0.6566844,-10.396031,-2.0489392,10.61634809,-1.335615592,-9.524118492,-1.349063592,10.16988546
41:51.3,1.42E+12,0.13307327,-11.123817,-3.0111382,11.52492804,-1.267908387,-9.674666408,-1.408002027,10.30339796
41:51.3,1.42E+12,0.20642075,-12.73387,-4.4984455,13.50666749,-1.196243412,-9.864163354,-1.492764763,10.47952715
41:51.3,1.42E+12,-1.0762619,-15.189962,-5.8309746,16.30624267,-1.15576459,-10.11834378,-1.601950713,10.72589118
41:51.3,1.42E+12,-3.3525782,-17.285904,-5.619614,18.48302787,-1.179478274,-10.41940373,-1.732736743,11.03066067
41:51.4,1.42E+12,-5.3431387,-15.430662,-4.564159,16.95541236,-1.253723874,-10.56651481,-1.821469228,11.20498623
41:51.4,1.42E+12,-5.4087024,-12.190649,-2.1550684,13.50963747,-1.380941321,-10.55339009,-1.83849482,11.21622034
41:51.4,1.42E+12,-4.473148,-9.989777,-1.5949333,11.06112606,-1.519717731,-10.42311903,-1.799156622,11.09619447
41:51.4,1.42E+12,-2.5021966,-9.33399,-1.0907817,9.724924774,-1.614443747,-10.36453087,-1.681752762,11.00514975
41:51.4,1.42E+12,-2.4089406,-8.997041,-2.8369007,9.736413464,-1.711187565,-10.34884051,-1.604372676,10.95776692
41:51.5,1.42E+12,-2.8714788,-8.514295,-3.036735,9.48474403,-1.777703246,-10.32897085,-1.554795776,10.92743829
41:51.5,1.42E+12,-3.5227745,-7.806566,-2.4671695,8.912874858,-1.819909482,-10.29262643,-1.541272898,10.9012524
41:51.5,1.42E+12,-2.829566,-6.8596354,-1.8817369,7.655192704,-1.819996304,-10.24410333,-1.544332536,10.8571798
41:51.5,1.42E+12,-2.6688,-6.250851,-1.357078,6.930894052,-1.791851824,-10.19455037,-1.533638774,10.79945162
41:51.5,1.42E+12,-3.0749056,-5.0078363,-1.1090437,5.980254742,-1.749094736,-10.12675036,-1.468152956,10.70280671
41:51.6,1.42E+12,-3.5582507,-3.5459762,-0.96579164,5.115451959,-1.723441084,-10.02036958,-1.370654708,10.57176027
41:51.7,1.42E+12,-3.6479142,-3.2702494,-0.7243437,4.952421927,-1.724629616,-9.874249432,-1.314192122,10.43644231
41:51.7,1.42E+12,-3.1787896,-3.2278876,-0.5545967,4.564158102,-1.726572574,-9.650725244,-1.342390483,10.23262813
41:51.7,1.42E+12,-2.9642859,-3.337759,-0.46418473,4.488105781,-1.731895508,-9.390578224,-1.365235976,9.990786642
41:51.7,1.42E+12,-2.9505143,-3.8453536,-0.38649628,4.862268845,-1.769236854,-9.122668356,-1.261968722,9.725142726
41:51.7,1.42E+12,-1.9059864,-4.254902,0.027093658,4.662371634,-1.803575445,-8.912409596,-1.210260252,9.518610311
41:51.7,1.42E+12,-1.283431,-5.9101596,-0.8696915,6.110118242,-1.783154905,-8.810160208,-1.303815706,9.403064608
41:51.7,1.42E+12,-0.4034111,-9.897717,-2.4209156,10.19746903,-1.722471095,-8.803987028,-1.454444472,9.368598672
41:51.7,1.42E+12,1.0457253,-11.814182,-3.913462,12.48934036,-1.634534961,-8.811351708,-1.619895412,9.364423991
41:51.7,1.42E+12,2.5071363,-12.627292,-3.9655535,13.47070341,-1.515433635,-8.821371868,-1.718417532,9.380968412
41:51.8,1.42E+12,2.6014402,-11.336825,-5.535938,12.88168086,-1.461695385,-8.804588768,-1.803473658,9.393728003
41:51.8,1.42E+12,0.83810717,-10.40636,-6.2873755,12.1871179,-1.450908816,-8.794694348,-1.919203998,9.419136951
41:51.8,1.42E+12,-0.9957294,-9.761352,-5.887856,11.44300302,-1.456237735,-8.803534968,-2.05869592,9.459781601
41:51.8,1.42E+12,-1.9670595,-9.80536,-5.0614247,11.20858723,-1.474856019,-8.834694188,-2.17466576,9.517056424
41:51.8,1.42E+12,-2.7860065,-9.827663,-4.2367897,11.05871508,-1.503521409,-8.877633888,-2.26097628,9.582244943
41:51.9,1.42E+12,-3.4585578,-9.498947,-4.0739284,10.89901412,-1.544527137,-8.916972082,-2.334988374,9.646792263
41:51.9,1.42E+12,-4.1016207,-9.132509,-7.3863897,12.44125258,-1.600411925,-8.940859402,-2.453008944,9.731996218
41:51.9,1.42E+12,-4.5165577,-10.270741,-8.500374,14.07635508,-1.678950601,-8.974757902,-2.56987094,9.833575124
41:52.0,1.42E+12,-3.8194573,-10.4124975,-0.255818,11.09386322,-1.759019096,-9.011635232,-2.508956612,9.871761986
41:52.0,1.42E+12,-2.7427464,-11.474239,4.4517426,12.60947384,-1.827528629,-9.082312258,-2.352633686,9.950936908
41:52.0,1.42E+12,-3.4019756,-12.551699,1.5946339,13.10196333,-1.902899895,-9.188375706,-2.264652648,10.0573609
41:52.0,1.42E+12,-2.8211832,-15.193405,-1.5298188,15.52865016,-1.946725756,-9.306279526,-2.232511488,10.17126815
41:52.0,1.42E+12,-1.8562899,-18.272503,-3.4510734,18.68796633,-1.96039533,-9.487573546,-2.252387156,10.35298855
41:52.0,1.42E+12,-1.5383509,-13.492791,-2.3011646,13.77379,-1.967245084,-9.601926732,-2.284525322,10.47052163
41:52.0,1.42E+12,-4.734355,-9.266331,3.2922537,10.91411663,-2.045918484,-9.659038972,-2.207809853,10.55913697
41:52.1,1.42E+12,-7.1389546,-7.9520636,5.468578,12.0043881,-2.16833991,-9.679564284,-2.104617444,10.65908448
41:52.1,1.42E+12,-6.500083,-8.629555,6.2589345,12.48577429,-2.271062298,-9.676133424,-1.981848742,10.73066043
41:52.1,1.42E+12,-4.103866,-10.876233,4.3824368,12.42336157,-2.324195808,-9.688243264,-1.858274714,10.7685959
41:52.1,1.42E+12,-1.3057348,-11.648477,1.9910097,11.88932628,-2.323845538,-9.732332584,-1.797866334,10.81454916
41:52.1,1.42E+12,-0.2891986,-10.741663,0.28889924,10.74943825,-2.298057166,-9.775607604,-1.795393476,10.85506739
41:52.2,1.42E+12,-1.0797048,-10.016271,-0.74604857,10.10188278,-2.299467234,-9.795252744,-1.797294522,10.87483525
41:52.2,1.42E+12,-2.6098228,-8.698262,0.18755996,9.083287709,-2.334665039,-9.783241724,-1.785837348,10.86959059
41:52.2,1.42E+12,-2.949766,-7.9598475,1.113235,8.561517613,-2.374634922,-9.743562234,-1.751777177,10.84068863
41:52.3,1.42E+12,-2.158212,-7.9159884,1.6139438,8.362150798,-2.40298896,-9.693347642,-1.678744049,10.79493674
41:52.3,1.42E+12,-0.7644603,-8.296348,2.4641757,8.688265164,-2.407790974,-9.645605922,-1.589745123,10.7511208
41:52.3,1.42E+12,0.7348219,-8.335267,1.8377284,8.567023104,-2.379960848,-9.604390642,-1.512011771,10.7101343
41:52.3,1.42E+12,1.1274555,-9.230704,-0.64411056,9.321584128,-2.360073204,-9.566528382,-1.464671218,10.66606742
41:52.3,1.42E+12,0.8333171,-9.892927,-0.7688013,9.957684342,-2.347535277,-9.509709522,-1.390078334,10.59508776
41:52.3,1.42E+12,0.0291893,-10.038425,0.010627899,10.03847306,-2.325426253,-9.406678782,-1.273246284,10.46973236
41:52.3,1.42E+12,0.37541932,-11.465108,-0.20222946,11.47303525,-2.250866302,-9.290262862,-1.164898594,10.32953251
41:52.4,1.42E+12,1.1070977,-11.518996,-0.93794954,11.61002513,-2.121861574,-9.212029542,-1.092374404,10.22262477
41:52.4,1.42E+12,0.30940658,-11.047776,-1.8615289,11.20778198,-2.007499395,-9.189172082,-1.086503614,10.17658766
41:52.4,1.42E+12,-1.317111,-10.67565,-1.5654446,10.86990805,-1.944378655,-9.202889542,-1.08591384,10.1727633
41:52.4,1.42E+12,-1.9690055,-10.380464,-1.2921131,10.64427413,-1.933714833,-9.223819022,-1.089940468,10.19115028
41:52.4,1.42E+12,-1.664838,-10.203382,-0.9786649,10.38453055,-1.918832781,-9.247945842,-1.052775752,10.20411263
41:52.5,1.42E+12,-1.40902,-10.740016,0.29264146,10.83600111,-1.889583605,-9.292460262,-0.986188223,10.23113777
41:52.5,1.42E+12,-2.1757255,-11.489807,-0.12963043,11.69471036,-1.862642625,-9.366125082,-0.939437442,10.28677448
41:52.5,1.42E+12,-2.7138565,-12.315041,-2.8452833,12.92752447,-1.860328435,-9.475233194,-0.95870837,10.39222111
41:52.5,1.42E+12,-3.2995884,-13.043575,-2.1797671,13.6298759,-1.872944203,-9.611087674,-0.975162152,10.52620075
41:52.5,1.42E+12,-3.8618193,-12.333153,-0.667462,12.94085842,-1.888682477,-9.757594008,-0.966330518,10.66541282
41:52.6,1.42E+12,-3.7199144,-11.19941,-0.80622345,11.82854783,-1.891915751,-9.910662684,-0.963139154,10.79967474
41:52.6,1.42E+12,-4.240382,-10.446925,-1.6452287,11.3941151,-1.903765107,-10.0541962,-0.981556854,10.92850861
41:52.6,1.42E+12,-5.4000206,-9.577983,-0.5457651,11.00889824,-1.948189727,-10.1811981,-0.981380222,11.05740341
41:52.7,1.42E+12,-6.4628105,-8.75679,0.7243437,10.90751871,-2.018160219,-10.28957872,-0.957609653,11.18579167
41:52.7,1.42E+12,-6.740932,-8.121062,1.5525714,10.66781562,-2.093968573,-10.37509289,-0.9188283,11.3019026
41:52.7,1.42E+12,-6.816076,-8.664283,0.7499405,11.04948427,-2.192170365,-10.46328051,-0.904371363,11.42964485
41:52.7,1.42E+12,-6.0872416,-8.918304,-0.7550299,10.82408087,-2.288246577,-10.5234434,-0.902078131,11.52392411
41:52.7,1.42E+12,-3.9737864,-8.798703,-1.2572355,9.735953674,-2.359654083,-10.50146312,-0.878804529,11.5146938
41:52.7,1.42E+12,-2.5430617,-9.092392,-0.6592291,9.464319209,-2.431429823,-10.44702732,-0.813719871,11.45419338
41:52.8,1.42E+12,-1.9827768,-8.672366,0.006436615,8.896143957,-2.521228085,-10.3679288,-0.734280069,11.36270219
41:52.8,1.42E+12,-2.6473947,-7.7486367,0.34593064,8.195714576,-2.626204783,-10.29616503,-0.616642696,11.26898286
41:52.8,1.42E+12,-3.2856674,-7.2763686,-0.065114595,7.984071028,-2.708680274,-10.23356521,-0.492197478,11.18492192
41:52.8,1.42E+12,-3.0768516,-7.3875875,-0.9514215,8.059073626,-2.750302718,-10.18608992,-0.393468788,11.11724334
41:52.8,1.42E+12,-2.634222,-7.7607613,-1.3843213,8.311731887,-2.763645968,-10.14519794,-0.31992672,11.05930623
41:52.8,1.42E+12,-2.2189856,-7.989935,-1.4367124,8.415883846,-2.75230555,-10.10844338,-0.263925174,11.00644961
41:52.9,1.42E+12,-1.9978954,-7.932305,-1.6595988,8.346694964,-2.723092302,-10.07711054,-0.215638582,10.95540322
41:52.9,1.42E+12,-1.9329305,-7.579638,-1.9014958,8.050019802,-2.679718498,-10.04605312,-0.105940704,10.86757857
41:53.0,1.42E+12,-1.8435663,-7.1578155,-1.6465759,7.572600057,-2.62625867,-9.983794612,0.031135258,10.73750347
41:53.0,1.42E+12,-1.8796413,-7.3351965,-0.9659413,7.633557605,-2.58746235,-9.922248592,0.016932792,10.66829735
41:53.0,1.42E+12,-1.6241226,-7.413783,-1.1452684,7.675519025,-2.565089874,-9.841039472,-0.095007428,10.56961826
41:53.0,1.42E+12,-1.5655943,-7.7396555,-2.256857,8.212597414,-2.528362248,-9.744798602,-0.172037246,10.47183094
41:53.0,1.42E+12,-1.0349479,-7.9622426,-3.6178267,8.806650578,-2.492637542,-9.600175354,-0.213797404,10.33739095
41:53.0,1.42E+12,-0.3159929,-8.429272,-4.8168335,9.713617397,-2.461831602,-9.403310734,-0.241112606,10.15790397
41:53.0,1.42E+12,0.3797603,-8.985215,-5.3164945,10.44717284,-2.423469378,-9.313159214,-0.301419204,10.09137163
41:53.0,1.42E+12,0.5840854,-9.6725855,-4.5011396,10.68458346,-2.31710057,-9.321284304,-0.45728707,10.08678096
41:53.1,1.42E+12,0.603994,-10.245444,-4.136947,11.06563428,-2.162241598,-9.367151912,-0.64939757,10.06800589
41:53.1,1.42E+12,-0.3980223,-10.447973,-4.422703,11.3524827,-2.040200384,-9.403520272,-0.86303032,10.04534005
41:53.1,1.42E+12,-0.95695996,-10.461894,-4.940925,11.60946761,-1.977262263,-9.395233492,-1.049497556,10.02906218
41:53.1,1.42E+12,-1.7500108,-9.340277,-5.277276,10.8698185,-1.986147783,-9.349069492,-1.19486327,10.00867202
41:53.1,1.42E+12,-3.2314801,-8.653206,-4.5930486,10.31583895,-2.044993413,-9.307300352,-1.292502227,10.00000003
41:53.2,1.42E+12,-3.901786,-9.413026,-3.6019597,10.80754857,-2.101435037,-9.295235452,-1.349620449,10.01411335
41:53.2,1.42E+12,-3.9799237,-9.776918,-1.9173628,10.72866247,-2.128837055,-9.316808572,-1.391718904,10.04702084
41:53.2,1.42E+12,-3.7232075,-12.861704,-1.8097366,13.51150807,-2.144305885,-9.414845702,-1.450178336,10.14602065
41:53.3,1.42E+12,-4.1335044,-15.822098,-3.121908,16.64845198,-2.183811733,-9.572967894,-1.544895372,10.31174668
41:53.3,1.42E+12,-5.327272,-11.586057,-5.046306,13.71428992,-2.275067967,-9.638762074,-1.695105006,10.41226717
41:53.3,1.42E+12,-5.8187,-6.314469,-1.8217118,8.777723072,-2.406138405,-9.598346114,-1.76829381,10.41648117
41:53.3,1.42E+12,-5.9191413,-3.4971776,3.5866914,7.754407785,-2.547070341,-9.483675586,-1.683677771,10.38513764
41:53.3,1.42E+12,-4.9657736,-3.734135,4.866979,7.892411307,-2.663052155,-9.360499746,-1.570962165,10.34383218
41:53.3,1.42E+12,-3.2509396,-6.423742,2.9246182,7.770872614,-2.728654733,-9.288206086,-1.512682359,10.29848018
41:53.3,1.42E+12,0.3610492,-13.031751,2.0546274,13.19766587,-2.728942136,-9.319538946,-1.467545222,10.33297279
41:53.4,1.42E+12,2.3881338,-14.322067,0.6186635,14.53298079,-2.703321414,-9.375600366,-1.436412961,10.3914319
41:53.4,1.42E+12,0.9792636,-11.686498,0.20327729,11.72921627,-2.689924273,-9.388374806,-1.395116837,10.40186059
41:53.4,1.42E+12,-1.5034735,-9.7288685,0.98195803,9.89320759,-2.693651523,-9.369439176,-1.344168785,10.38232658
41:53.4,1.42E+12,-3.3423994,-8.806337,1.5516733,9.546250318,-2.721119401,-9.337956636,-1.287293057,10.3603661
41:53.4,1.42E+12,-3.8755906,-8.597522,1.2430152,9.512238108,-2.765334453,-9.305839436,-1.242859455,10.34292025
41:53.5,1.42E+12,-3.253185,-9.699679,1.213227,10.30237376,-2.802217753,-9.285032696,-1.224447744,10.33224771
41:53.5,1.42E+12,-2.5951533,-9.884096,0.9713301,10.26516715,-2.810606309,-9.252918476,-1.202428533,10.30365684
41:53.5,1.42E+12,-2.1727319,-9.282946,0.80113405,9.567427351,-2.799783817,-9.192276576,-1.129500186,10.2364549
41:53.5,1.42E+12,-1.7561481,-9.303453,1.1979588,9.5432384,-2.768915011,-9.117474136,-1.061945668,10.15472215
41:53.5,1.42E+12,-1.5286212,-9.39626,1.0300081,9.575348633,-2.722251049,-9.058736276,-1.027996266,10.08741195
41:53.6,1.42E+12,-1.0219249,-9.551937,1.4624588,9.717130065,-2.668291259,-9.025786816,-0.982622621,10.0451836
41:53.6,1.42E+12,-0.9607022,-9.995764,1.7404307,10.19153304,-2.602697663,-9.016763596,-0.914909433,10.02113196
41:53.6,1.42E+12,-1.1524534,-9.771231,1.6717236,9.979968131,-2.517746319,-9.020628556,-0.870559659,10.00055335
41:53.7,1.42E+12,-1.3876145,-9.517658,0.5188211,9.63226158,-2.416242399,-9.035845916,-0.874670111,9.975048212
41:53.7,1.42E+12,-1.2804374,-9.495055,-0.24354355,9.58409635,-2.307032507,-9.063325776,-0.91059241,9.953373826
41:53.7,1.42E+12,-0.7336244,-9.742939,-0.3968248,9.778575307,-2.185383475,-9.084898896,-0.933527716,9.927955647
41:53.7,1.42E+12,-0.1817221,-9.672735,0.45550278,9.685159167,-2.067273085,-9.099987516,-0.909317063,9.905177213
41:53.7,1.42E+12,-0.3384462,-9.646689,0.9779164,9.702034579,-1.994566281,-9.116947236,-0.864614025,9.904498831
41:53.7,1.42E+12,-0.4816983,-9.896071,1.165626,9.976118407,-1.953339013,-9.133020816,-0.828116923,9.914734815
41:53.8,1.42E+12,-0.18860778,-9.810449,0.13187577,9.813148001,-1.917455633,-9.155782476,-0.82560814,9.933074896
41:53.8,1.42E+12,0.0889151,-9.988279,-0.95531344,10.03425369,-1.862729437,-9.200575322,-0.851633021,9.969845678
41:53.8,1.42E+12,-0.034278717,-10.08393,-1.0767109,10.14130789,-1.797701663,-9.25672655,-0.871864947,10.01299042
41:53.8,1.42E+12,-0.36194733,-10.203232,-1.0659333,10.2651431,-1.743403578,-9.31303944,-0.874155183,10.05711181
41:53.8,1.42E+12,-0.7524852,-9.998458,-1.239722,10.10308403,-1.705768842,-9.357793374,-0.871263197,10.09293885
41:53.8,1.42E+12,-0.81026506,-10.31505,-0.88885164,10.38493347,-1.677594431,-9.404295674,-0.860305982,10.13231984
41:53.9,1.42E+12,-1.2005036,-10.997031,-0.8994795,11.09887215,-1.661646595,-9.465590194,-0.845103596,10.18736338
41:53.9,1.42E+12,-2.0459454,-11.788885,-2.414479,12.20628572,-1.663906893,-9.549775134,-0.85536326,10.2704887
41:53.9,1.42E+12,-3.1100826,-13.270205,-4.7392945,14.4302414,-1.689237219,-9.672022924,-0.917217632,10.40764153
41:53.9,1.42E+12,-3.785927,-14.081966,-3.0340407,14.89430806,-1.727362933,-9.806958314,-0.95857962,10.55285654
41:54.0,1.42E+12,-4.0667434,-13.543087,-2.4056475,14.34366575,-1.776215349,-9.929544394,-0.983787202,10.68621947
41:54.0,1.42E+12,-4.252956,-12.015064,-3.2811768,13.16113669,-1.829962583,-10.01505256,-1.004273598,10.78519026
41:54.0,1.42E+12,-5.435347,-11.243568,-1.9402652,12.63825334,-1.917970565,-10.08067907,-0.970722368,10.86182231
41:54.0,1.42E+12,-6.575227,-10.193502,1.4153068,12.2124603,-2.043155247,-10.11596367,-0.846079562,10.91179917
41:54.0,1.42E+12,-6.4945445,-8.957223,2.9542565,11.45157559,-2.180641343,-10.11540383,-0.680664542,10.93188723
41:54.0,1.42E+12,-3.53445,-9.478589,5.3521204,11.44470091,-2.263012051,-10.1115239,-0.483599342,10.94708958
41:54.1,1.42E+12,-2.55354,-9.220825,0.43110353,9.577579572,-2.326162731,-10.09103152,-0.392238332,10.91732848
41:54.1,1.42E+12,-1.198857,-10.6624775,-3.6799476,11.34317852,-2.342179425,-10.09532161,-0.377383224,10.9171424
41:54.1,1.42E+12,-0.565524,-10.101744,-1.413361,10.21580337,-2.334350706,-10.08811861,-0.306831944,10.88926911
41:54.1,1.42E+12,-1.6661851,-8.255333,0.09595047,8.422345411,-2.332674192,-10.06641973,-0.199367414,10.84031965
41:54.1,1.42E+12,-2.3358924,-6.136489,1.2331357,6.68083185,-2.314762438,-10.01608539,-0.082843728,10.76761951
41:54.2,1.42E+12,-2.4313939,-5.048252,1.0261161,5.696440889,-2.285354596,-9.928789912,0.009717788,10.66539736
41:54.2,1.42E+12,-2.7223887,-4.773274,0.30880782,5.503717578,-2.260203896,-9.828717032,0.0542412,10.56089846
41:54.2,1.42E+12,-3.2549813,-5.039121,-0.3330574,6.008208631,-2.250839372,-9.672265372,0.083774784,10.41083247
41:54.3,1.42E+12,-3.4802628,-5.6907163,-0.569865,6.69486574,-2.23777454,-9.469637738,0.134815644,10.21176074
41:54.3,1.42E+12,-3.4423914,-5.7380176,-0.5195696,6.71154655,-2.200076928,-9.35267695,0.225350372,10.07170588
41:54.3,1.42E+12,-2.588118,-6.123167,-0.7764354,6.692860436,-2.135465288,-9.34885091,0.2462559,10.03000862
41:54.3,1.42E+12,-1.8497036,-8.738977,-1.0749147,8.997030845,-2.054076534,-9.453686898,0.153023778,10.05486109
41:54.3,1.42E+12,-0.4297563,-10.614428,-1.574875,10.73922732,-1.963356188,-9.591292758,0.024186698,10.11179741
41:54.3,1.42E+12,1.6739689,-11.902648,-4.5496387,12.85201983,-1.864858018,-9.700870878,-0.12529844,10.21342035
41:54.3,1.42E+12,4.1588016,-11.9867735,-6.4505363,14.2333337,-1.78890297,-9.679971328,-0.295401714,10.23413371
41:54.4,1.42E+12,1.9076331,-10.519075,-4.0688386,11.43876962,-1.798512984,-9.603911488,-0.389151756,10.17224948
41:54.4,1.42E+12,-1.2222084,-9.110355,-1.9716998,9.401061733,-1.842542424,-9.552388628,-0.432651298,10.12568639
41:54.4,1.42E+12,-2.133214,-8.349637,-0.9645941,8.671648158,-1.855137234,-9.524803998,-0.47158234,10.1012552
41:54.4,1.42E+12,-2.5478518,-8.982671,-0.4816983,9.349436365,-1.839246282,-9.528330678,-0.512249772,10.09731892
41:54.4,1.42E+12,-2.3141875,-10.393337,-1.0897338,10.70347782,-1.80801822,-9.564246978,-0.558904752,10.12114372
41:54.5,1.42E+12,-2.2915847,-13.04133,-2.122586,13.41018344,-1.788786214,-9.631079998,-0.625621012,10.18329991
41:54.5,1.42E+12,-2.336192,-14.341377,-2.8639944,14.80997472,-1.783606988,-9.720225618,-0.702327502,10.27419606
41:54.5,1.42E+12,-3.3545241,-11.294164,-5.3004775,12.91921182,-1.807242832,-9.760449978,-0.824359733,10.34123175
41:54.5,1.42E+12,-3.2419584,-7.459288,-0.27887008,8.138122649,-1.836959038,-9.723566678,-0.853896311,10.31312944
41:54.6,1.42E+12,-3.5802548,-5.99653,3.6169286,7.865034582,-1.87799171,-9.655572078,-0.802157901,10.27892316
41:54.6,1.42E+12,-2.8840525,-7.268884,4.50593,9.025399636,-1.915234262,-9.609911018,-0.741288477,10.26508855
41:54.6,1.42E+12,-1.9414628,-9.518406,3.072361,10.18865706,-1.934849474,-9.600363858,-0.714649871,10.26503103
41:54.6,1.42E+12,-0.34548157,-11.40149,0.53783154,11.41939554,-1.918710037,-9.632969038,-0.737327712,10.29381958
41:54.6,1.42E+12,1.2005036,-11.747721,-0.94363767,11.84654421,-1.866947675,-9.677570298,-0.766576887,10.33810523
41:54.6,1.42E+12,-0.066162415,-10.436148,-0.61252624,10.45431733,-1.842662175,-9.696392158,-0.773956541,10.35550965
41:54.7,1.42E+12,-1.7383351,-9.479637,0.7222481,9.664728082,-1.862756389,-9.691126118,-0.751575083,10.35323271
41:54.7,1.42E+12,-2.562671,-9.250014,0.30835876,9.603391421,-1.910375367,-9.682671698,-0.754517964,10.35159735
41:54.7,1.42E+12,-2.2659879,-9.645193,0.69246,9.93196607,-1.948926201,-9.682641778,-0.760227092,10.35619598
41:54.7,1.42E+12,-1.6067587,-9.88709,0.508792,10.02971044,-1.971427409,-9.682462158,-0.773363772,10.35726782
41:54.7,1.42E+12,-1.1100916,-9.88709,0.30850846,9.953995655,-1.989857086,-9.683994978,-0.769831118,10.36008477
41:54.8,1.42E+12,-1.287323,-9.557775,0.33171022,9.649782128,-2.017381848,-9.675384898,-0.744090645,10.35239534
41:54.8,1.42E+12,-1.608555,-8.937465,-0.1540297,9.082370559,-2.048867374,-9.652455598,-0.725637021,10.3312166
41:54.8,1.42E+12,-1.3754897,-9.03102,-0.80113405,9.170229546,-2.069138221,-9.629011358,-0.720341036,10.30931832
41:54.8,1.42E+12,-0.88181627,-9.274264,-1.700913,9.47009386,-2.071724842,-9.614527478,-0.729564856,10.29665852
41:54.9,1.42E+12,-0.8655002,-9.285192,-2.459685,9.644373042,-2.072829545,-9.593930318,-0.760981523,10.28184731
41:54.9,1.42E+12,-0.606389,-9.013356,-4.042494,9.896971847,-2.060947253,-9.554256818,-0.823841813,10.25780931
41:54.9,1.42E+12,-0.37182677,-8.135432,-4.48647,9.297952572,-2.027464881,-9.481187758,-0.865281633,10.19964264
41:54.9,1.42E+12,-0.80397815,-6.9048414,-2.485282,7.382400846,-1.981342792,-9.353880486,-0.820201383,10.05868583
41:54.9,1.42E+12,-1.751358,-5.8776774,-0.22258712,6.137091452,-1.940651412,-9.189794714,-0.763972311,9.883541501
41:54.9,1.42E+12,-1.7859361,-6.599027,0.22258712,6.840048986,-1.895035266,-9.050913514,-0.711407619,9.733469165
41:55.0,1.42E+12,-0.8491841,-8.201145,-0.78227323,8.28201934,-1.826959828,-8.974635134,-0.661429547,9.635886818
41:55.0,1.42E+12,-0.556842,-8.35293,-0.66342044,8.397716313,-1.729389728,-8.916822374,-0.635892652,9.551076078
41:55.0,1.42E+12,-0.685724,-7.4751554,0.94872713,7.566257253,-1.611599668,-8.862455442,-0.645224246,9.458152017
41:55.0,1.42E+12,-0.92657316,-7.318581,1.4058765,7.509770596,-1.500240241,-8.829682602,-0.676191846,9.379315917
41:55.0,1.42E+12,-1.1121871,-9.261241,-0.048948213,9.327911928,-1.451794983,-8.825335642,-0.784213218,9.336980137
41:55.1,1.42E+12,0.02799179,-10.611583,-1.9974463,10.79797523,-1.400164347,-8.853150802,-0.832784214,9.36138805
41:55.1,1.42E+12,0.061522063,-9.989028,-1.4271322,10.09064773,-1.374956766,-8.839681812,-0.787727906,9.336337435
41:55.1,1.42E+12,-0.53828067,-9.650432,-0.41329056,9.674264466,-1.374411899,-8.830655572,-0.767726498,9.325506657
41:55.1,1.42E+12,-1.4715898,-9.096284,-0.5354366,9.23009488,-1.370519993,-8.847474592,-0.780354239,9.341661646
41:55.1,1.42E+12,-2.159709,-8.135881,0.3716771,8.425855831,-1.366996325,-8.887462432,-0.797583411,9.376562126
41:55.2,1.42E+12,-1.3573773,-9.041498,-1.2073892,9.222198648,-1.345515993,-8.967327352,-0.842253517,9.447077281
41:55.3,1.42E+12,-1.1431727,-11.2953615,-2.9340487,11.72606827,-1.313931673,-9.097769102,-0.907110647,9.571524295
41:55.3,1.42E+12,-0.9213341,-12.23855,-5.0512457,13.27200233,-1.267258729,-9.241757682,-1.001474413,9.716800169
41:55.3,1.42E+12,-0.22273682,-14.711408,-7.2763686,16.41403902,-1.202108209,-9.422171516,-1.135604485,9.911183634
41:55.3,1.42E+12,-0.9798624,-18.467398,-7.7338176,20.04536989,-1.152857629,-9.676759124,-1.279889445,10.1778601
41:55.3,1.42E+12,-3.7717066,-19.068546,-6.0472746,20.35693364,-1.176529401,-9.935666704,-1.385306229,10.45114156
41:55.3,1.42E+12,-5.6529946,-14.592256,-1.2856765,15.70169568,-1.252595221,-10.05273228,-1.389521465,10.58523486
41:55.3,1.42E+12,-5.380561,-10.021211,-0.060923308,11.37448101,-1.351611315,-10.04086794,-1.359242432,10.59793994
41:55.3,1.42E+12,-3.6452198,-7.1043763,-0.6996451,8.015565686,-1.457995089,-9.94490251,-1.28224256,10.50121085
41:55.4,1.42E+12,-3.6721637,-7.1404514,-2.4664211,8.399646747,-1.614614395,-9.847976068,-1.202560256,10.38453711
41:55.4,1.42E+12,-4.0420446,-9.09823,-2.973267,10.39019876,-1.733607949,-9.819559168,-1.180648824,10.3635657
41:55.4,1.42E+12,-4.835844,-9.274115,-3.0758038,10.9020716,-1.805880661,-9.822834368,-1.202730904,10.39358589
41:55.4,1.42E+12,-4.493805,-8.690628,-2.7382557,10.15969206,-1.853092481,-9.829654188,-1.238204136,10.42334677
41:55.4,1.42E+12,-3.744613,-7.911049,-1.9700532,8.971506697,-1.877027705,-9.808221748,-1.267971234,10.41578818
41:55.4,1.42E+12,-2.9717703,-6.4882574,-1.5606546,7.305104078,-1.890179361,-9.730120156,-1.27738965,10.3478207
41:55.5,1.42E+12,-2.676584,-5.197342,-1.7754579,6.109723114,-1.897879347,-9.573240396,-1.270447088,10.2018115
41:55.6,1.42E+12,-3.0946646,-4.5060797,-1.8483564,5.770452723,-1.913048799,-9.37653445,-1.250134328,10.02102106
41:55.6,1.42E+12,-3.3953893,-4.017196,-1.5528708,5.484335869,-1.913866103,-9.23099509,-1.175182194,9.872323538
41:55.6,1.42E+12,-3.01997,-3.0740075,-1.0937755,4.445906629,-1.909426335,-9.14328948,-1.191480302,9.798479218
41:55.6,1.42E+12,-2.2170396,-2.271227,-0.7857161,3.269722689,-1.882162031,-9.06878342,-1.279533196,9.70657298
41:55.6,1.42E+12,-1.9146684,-1.8212627,0.023950195,2.642636281,-1.862774349,-8.959830994,-1.369172792,9.578917713
41:55.6,1.42E+12,-1.7345929,-2.1865032,0.73856413,2.887054857,-1.858636951,-8.813192938,-1.41584873,9.432885669
41:55.6,1.42E+12,-1.0855426,-4.690496,0.2890489,4.82314262,-1.873438172,-8.678973058,-1.420824382,9.30096061
41:55.6,1.42E+12,0.850681,-9.404044,-0.9678873,9.491918012,-1.880434624,-8.632099518,-1.421309375,9.253868086
41:55.6,1.42E+12,3.062332,-13.562696,-3.2051349,14.26875922,-1.817864736,-8.694630478,-1.473161548,9.330156924
41:55.7,1.42E+12,4.5436516,-13.009148,-3.1903157,14.14428562,-1.692225002,-8.765220698,-1.551412824,9.419748075
41:55.7,1.42E+12,3.1883698,-10.2828665,-4.194577,11.55411276,-1.577204186,-8.785877748,-1.641471539,9.458762502
41:55.7,1.42E+12,0.28081605,-10.900482,-7.2874455,13.11511446,-1.526268107,-8.810983528,-1.801069649,9.522425469
41:55.7,1.42E+12,-1.9068847,-12.389735,-7.748936,14.73729119,-1.532270627,-8.861036428,-1.966224209,9.616577084
41:55.7,1.42E+12,-3.3275802,-10.909015,-5.9644966,12.87068832,-1.576620399,-8.881474928,-2.091684311,9.674910938
41:55.8,1.42E+12,-4.5408072,-8.646469,-5.118157,11.02614562,-1.641690083,-8.863248808,-2.200681655,9.702438208
41:55.8,1.42E+12,-5.4741163,-7.1076694,-5.207072,10.37297028,-1.719001309,-8.826652896,-2.301742501,9.728250202
41:55.8,1.42E+12,-4.7759686,-7.8381505,-4.7601013,10.33948953,-1.787010887,-8.802795506,-2.380921846,9.751635402
41:55.8,1.42E+12,-5.0958533,-10.251881,-2.4983048,11.71794827,-1.871291627,-8.822347846,-2.396869682,9.79659249
41:55.9,1.42E+12,-4.7868958,-13.333074,0.7927515,14.18850551,-1.949719539,-8.903305486,-2.331820952,9.887475139
41:55.9,1.42E+12,-2.9925768,-14.979051,-0.5599855,15.285322,-1.997443295,-9.022619386,-2.262170782,9.995242142
41:55.9,1.42E+12,-0.8301737,-18.670074,-8.50172,20.53144161,-2.006610234,-9.233312226,-2.342475782,10.21991192
41:55.9,1.42E+12,0.74919206,-16.467556,-2.479893,16.67007974,-1.97554683,-9.424566518,-2.342368002,10.4056655
41:55.9,1.42E+12,-3.1448104,-9.284742,6.0876904,11.53933451,-2.003415878,-9.49270781,-2.216162452,10.51371036
41:55.9,1.42E+12,-3.203638,-8.517737,7.863747,12.02720487,-2.031769916,-9.53108201,-2.063339254,10.61745348
41:56.0,1.42E+12,-2.4809408,-12.2416935,6.1813955,13.9364191,-2.06440505,-9.61189298,-1.924065879,10.73054147
41:56.0,1.42E+12,-2.1276755,-13.511951,-0.03727249,13.67849451,-2.09582172,-9.7150734,-1.91154292,10.83615704
41:56.0,1.42E+12,-0.23082,-13.529615,-2.8690836,13.83240401,-2.08672364,-9.836162592,-1.987899135,10.96147997
41:56.0,1.42E+12,-0.101488955,-11.24761,-0.64845157,11.26674399,-2.070221956,-9.914743172,-2.028985696,11.03661944
41:56.0,1.42E+12,-1.2337345,-8.811726,1.0835967,8.963414401,-2.072652904,-9.905752872,-2.006334798,11.02932949
41:56.1,1.42E+12,-1.5736775,-7.66511,0.78691363,7.864451999,-2.104686289,-9.846823412,-1.950647599,10.97065903
41:56.1,1.42E+12,-1.5048207,-7.8833566,-0.3903882,8.035185099,-2.136013145,-9.804709984,-1.929912719,10.92954977
41:56.1,1.42E+12,-1.0165361,-8.525671,-1.2778926,8.680634835,-2.145578253,-9.782214764,-1.94720476,10.90967718
41:56.1,1.42E+12,-0.56627244,-8.673413,-1.5278728,8.825143219,-2.127471906,-9.773757344,-1.967053484,10.90157815
41:56.1,1.42E+12,-0.65773225,-8.765922,-2.0428019,9.024801373,-2.097432371,-9.786358164,-2.015343064,10.91355706
41:56.2,1.42E+12,-0.43978545,-8.869206,-3.682043,9.613202742,-2.079080534,-9.782912324,-2.06483614,10.92137714
41:56.2,1.42E+12,0.44158173,-8.612491,-4.7858477,9.86277516,-2.047385446,-9.729254914,-2.10187212,10.88411128
41:56.2,1.42E+12,0.4206253,-8.430169,-3.9642065,9.325213573,-2.020546258,-9.653087294,-2.080131336,10.8051755
41:56.2,1.42E+12,0.11496094,-8.341703,-2.6228456,8.745086849,-2.013792302,-9.525693194,-1.987060876,10.65179646
41:56.2,1.42E+12,0.010777588,-8.02601,-2.3665786,8.367654806,-1.993979503,-9.316865434,-1.879716096,10.41824216
41:56.3,1.42E+12,0.011376343,-7.9489202,-1.6651373,8.121461937,-1.918317844,-9.094472918,-1.79207335,10.17353272
41:56.3,1.42E+12,0.434247,-7.659422,-1.2422667,7.771649914,-1.796573012,-8.955816238,-1.791205154,10.01493181
41:56.3,1.42E+12,-0.09460327,-8.344697,-0.21570145,8.348020419,-1.690853857,-8.922285958,-1.794300717,9.954402597
41:56.3,1.42E+12,-1.2726535,-8.937764,-0.35326537,9.034825326,-1.643402531,-8.958953712,-1.787373123,9.97478779
41:56.3,1.42E+12,-0.38365218,-8.793763,-2.8568091,9.254124212,-1.577632301,-8.992019944,-1.795180883,9.991877339
41:56.4,1.42E+12,0.20118164,-7.476203,-2.5527914,7.902583709,-1.492767776,-8.959579404,-1.786771371,9.942125038
41:56.4,1.42E+12,-1.5775695,-7.5179663,-0.16450791,7.68346313,-1.427602286,-8.92445643,-1.728545453,9.877752869
41:56.4,1.42E+12,-2.131717,-8.355924,-0.026045837,8.623593314,-1.380360526,-8.91776235,-1.674301255,9.847030894
41:56.4,1.42E+12,-1.1731105,-9.197024,-1.2120296,9.350425362,-1.328930476,-8.94348185,-1.659140783,9.854609267
41:56.4,1.42E+12,-0.40146515,-9.659713,-1.289718,9.753696839,-1.277524373,-9.006910962,-1.653722051,9.903581123
41:56.5,1.42E+12,-0.043858796,-10.387349,-1.6161891,10.5124217,-1.224869869,-9.110711102,-1.650536675,9.991635094
41:56.5,1.42E+12,-0.51298326,-10.323582,-1.1415262,10.39916243,-1.173236242,-9.227061148,-1.636400071,10.08420929
41:56.5,1.42E+12,-0.7445517,-9.509575,-1.511407,9.657677,-1.12021949,-9.336908728,-1.635570795,10.16767611
41:56.5,1.42E+12,-0.70009416,-10.03588,-2.600542,10.39094981,-1.073821973,-9.476146178,-1.665706125,10.28657697
41:56.6,1.42E+12,-0.42646316,-10.953023,-2.1953347,11.17900166,-1.038010444,-9.649782098,-1.693898497,10.44476255
41:56.6,1.42E+12,0.29353958,-11.183544,-3.8788838,11.84075848,-0.993846285,-9.837027724,-1.771955177,10.628725
41:56.6,1.42E+12,1.0663824,-13.129348,-5.655539,14.33534345,-0.937826779,-10.05588462,-1.89983724,10.85769077
41:56.6,1.42E+12,-0.49127838,-17.25492,-6.43422,18.42207387,-0.925941494,-10.3071731,-2.034302618,11.1296694
41:56.6,1.42E+12,-2.6363177,-19.11555,-5.7627163,20.13860278,-0.995681468,-10.50140322,-2.130199198,11.34260309
41:56.6,1.42E+12,-4.235442,-15.942298,-2.2020707,16.64166307,-1.141636948,-10.54899526,-2.110137914,11.39006117
41:56.7,1.42E+12,-4.50099,-11.986624,-0.8981323,12.83529149,-1.32252978,-10.52854478,-2.064294246,11.36388128
41:56.7,1.42E+12,-2.928061,-8.376431,-0.5167255,8.888483715,-1.444858396,-10.49041607,-1.990737216,11.3105687
41:56.7,1.42E+12,-1.9209553,-7.129225,-2.2189856,7.709722139,-1.488893823,-10.41499093,-1.889368018,11.20246086
41:56.7,1.42E+12,-1.7097446,-8.436905,-3.2925532,9.21658826,-1.484951021,-10.33593433,-1.800240362,11.0920468
41:56.7,1.42E+12,-2.128424,-8.706644,-2.9017158,9.421029299,-1.460967897,-10.29188691,-1.738984746,11.02305362
41:56.8,1.42E+12,-1.9943029,-8.00191,-1.3864169,8.362413499,-1.410037811,-10.27899573,-1.664349944,10.96977898
41:56.8,1.42E+12,-1.5269747,-7.1980815,-0.9620494,7.420887283,-1.331094979,-10.28080397,-1.579449492,10.91073732
41:56.9,1.42E+12,-1.7497115,-5.22234,-1.5810122,5.73008944,-1.270569837,-10.22848776,-1.51586771,10.81854931
41:56.9,1.42E+12,-2.5089326,-4.14024,-1.8353333,5.177333133,-1.218831423,-10.10625494,-1.50260828,10.68773701
41:56.9,1.42E+12,-3.0448182,-4.24128,-1.7949175,5.520969366,-1.183989871,-9.924419062,-1.55436166,10.51438629
41:56.9,1.42E+12,-3.278183,-4.5229945,-1.7622854,5.857440811,-1.189701995,-9.715297932,-1.578407658,10.32582866
41:56.9,1.42E+12,-3.69312,-4.9734077,-1.403182,6.351601311,-1.246960921,-9.441364606,-1.436436898,10.04223186
41:56.9,1.42E+12,-4.0338116,-5.577701,-1.1084449,6.972161398,-1.342620995,-9.223567506,-1.409007936,9.848273492
41:56.9,1.42E+12,-3.7332368,-5.962401,-0.9963281,7.104924516,-1.354389523,-9.157120686,-1.550688306,9.759585292
41:56.9,1.42E+12,-2.9352462,-5.5640793,-0.9960287,6.36920104,-1.349021687,-9.098047532,-1.72788382,9.646425216
41:57.0,1.42E+12,-1.7106427,-6.9364257,-0.67195266,7.175780119,-1.333615725,-8.991942176,-1.864950783,9.511212436
41:57.0,1.42E+12,-0.2665956,-8.641081,-1.3653108,8.75233841,-1.296394127,-8.894524776,-1.891511549,9.412689314
41:57.0,1.42E+12,0.7924521,-11.1585455,-2.696792,11.50711976,-1.275928685,-8.847103386,-1.888065717,9.366183629
41:57.0,1.42E+12,1.4117143,-11.458971,-3.0737083,11.94774608,-1.24566462,-8.851330606,-1.936570852,9.379803671
41:57.0,1.42E+12,1.8311421,-10.004894,-2.8508217,10.56305684,-1.184367088,-8.875193966,-2.01525922,9.41179652
41:57.1,1.42E+12,2.0377126,-9.401649,-3.0514045,10.09229141,-1.112139286,-8.909924746,-2.092025583,9.456353308
41:57.1,1.42E+12,1.1966116,-9.979897,-3.6726127,10.7013227,-1.05811064,-8.951855554,-2.157670073,9.50967606
41:57.1,1.42E+12,-0.255818,-9.981693,-3.4129028,10.55213455,-1.042896278,-8.980975994,-2.200370277,9.547106054
41:57.1,1.42E+12,-1.4926959,-9.567654,-3.6531532,10.34957354,-1.061424747,-8.998860814,-2.242875885,9.57759466
41:57.2,1.42E+12,-1.6326549,-8.279732,-4.264482,9.455439215,-1.0809232,-8.989137014,-2.287309487,9.586207417
41:57.2,1.42E+12,-1.2509487,-8.067473,-3.7932618,9.002101329,-1.097146465,-8.973102354,-2.289533863,9.573985389
41:57.2,1.42E+12,-1.6736696,-8.090975,-1.8839822,8.474339816,-1.139451491,-8.962672034,-2.231496553,9.546216682
41:57.2,1.42E+12,-2.6346712,-8.813822,-0.8183482,9.235509967,-1.200557421,-8.970345094,-2.168579387,9.54442261
41:57.2,1.42E+12,-4.6047244,-10.818603,-3.3470397,12.22490623,-1.294951128,-9.019883094,-2.183063269,9.614018998
41:57.2,1.42E+12,-5.2087183,-12.2714815,-5.8164544,14.54479791,-1.399341046,-9.104792524,-2.252060785,9.73756186
41:57.3,1.42E+12,-2.4441175,-12.537179,-0.420775,12.78012595,-1.448450923,-9.1965577,-2.227173539,9.83073514
41:57.3,1.42E+12,-0.023052063,-11.839629,0.558788,11.85283048,-1.457596904,-9.28016184,-2.191152445,9.912358751
41:57.3,1.42E+12,0.13606705,-16.784746,-1.6730708,16.86847291,-1.452983498,-9.44896282,-2.220299832,10.0827678
41:57.3,1.42E+12,2.0652552,-19.125578,-11.957884,22.65047467,-1.386225324,-9.6527191,-2.452392204,10.35508079
41:57.3,1.42E+12,-0.7629634,-12.484938,1.0341994,12.55091066,-1.393811548,-9.7265426,-2.374572034,10.42101652
41:57.4,1.42E+12,-3.468138,-8.087382,5.558391,10.40814293,-1.467197941,-9.73876618,-2.212348386,10.4711277
41:57.4,1.42E+12,-3.2371683,-8.8388195,5.9794655,11.15159165,-1.500389917,-9.765183244,-2.089468918,10.54049027
41:57.4,1.42E+12,-2.994373,-11.077564,3.5399885,12.00875566,-1.517643037,-9.819616044,-2.018148231,10.60819352
41:57.4,1.42E+12,-1.7944684,-12.612473,-0.41403902,12.74621592,-1.530070195,-9.887925024,-2.00218842,10.67610933
41:57.4,1.42E+12,0.8785231,-12.10398,-2.7318192,12.43949239,-1.50447043,-9.936810364,-2.031030444,10.72982524
41:57.5,1.42E+12,-0.20148101,-10.028246,-0.29922774,10.03473217,-1.507622874,-9.929628304,-2.004691216,10.72027145
41:57.6,1.42E+12,-1.3262421,-8.57896,1.1946657,8.762687882,-1.523888051,-9.894735864,-1.957967378,10.68754196
41:57.6,1.42E+12,-1.3230987,-8.123457,0.33994308,8.237518139,-1.535458991,-9.867013504,-1.920940377,10.65913878
41:57.6,1.42E+12,-1.2795392,-8.536598,-0.22004242,8.634763728,-1.547047892,-9.837027864,-1.873330385,10.62401506
41:57.6,1.42E+12,-1.0563533,-9.075777,-0.45595184,9.148415301,-1.559645694,-9.799482944,-1.838542728,10.58340333
41:57.6,1.42E+12,-0.6604266,-8.907976,-1.2178674,9.015065209,-1.578725018,-9.753971584,-1.7853224,10.52688947
41:57.6,1.42E+12,-0.5369334,-8.709639,-1.8103354,8.911982004,-1.610791334,-9.665577404,-1.708418328,10.41842224
41:57.6,1.42E+12,-0.13217515,-8.523874,-1.9574794,8.74674933,-1.603609269,-9.490956484,-1.618883516,10.22491575
41:57.6,1.42E+12,0.22632934,-8.82894,-2.5107288,9.181784445,-1.546356329,-9.285224284,-1.553843766,10.00577938
41:57.6,1.42E+12,-0.11106903,-9.253607,-1.8694625,9.441211198,-1.463868869,-9.151450464,-1.547191602,9.861770344
41:57.7,1.42E+12,-0.2826123,-8.788225,-0.86325485,8.835042575,-1.379501315,-9.087482484,-1.546494053,9.781765366
41:57.7,1.42E+12,-0.77718383,-8.288863,-0.8044272,8.363992328,-1.336483772,-9.085731124,-1.552248087,9.771275538
41:57.7,1.42E+12,-0.16316071,-7.6755886,-2.757865,8.15764066,-1.30132788,-9.096658396,-1.563025675,9.780233908
41:57.7,1.42E+12,0.6746471,-7.5922117,-2.4806414,8.015635281,-1.253640046,-9.07976453,-1.546787439,9.756214849
41:57.8,1.42E+12,0.3570076,-7.3585477,-1.5167958,7.52172508,-1.203931414,-9.052802604,-1.519089039,9.718228764
41:57.8,1.42E+12,-0.12948075,-8.6032095,-2.364932,8.923277555,-1.166634971,-9.064828594,-1.538659341,9.729446046
41:57.8,1.42E+12,-1.0506651,-8.618178,-0.6951544,8.709772031,-1.157108779,-9.093230524,-1.533321441,9.755223741
41:57.8,1.42E+12,-1.4199471,-7.8909907,0.038170625,8.017820214,-1.150513491,-9.146603538,-1.500937785,9.800978356
41:57.8,1.42E+12,-0.7033873,-8.193063,-1.479224,8.355186333,-1.114402585,-9.227659998,-1.493815599,9.86453542
41:57.8,1.42E+12,-0.70772827,-8.493637,-0.9172925,8.572291078,-1.067660786,-9.312707138,-1.476263099,9.925561854
41:57.9,1.42E+12,-0.7747888,-8.808433,-0.7114705,8.8710191,-1.017592902,-9.398415908,-1.455246801,9.98583342
41:57.9,1.42E+12,-0.71596116,-9.546847,-1.2090358,9.649697176,-0.958049726,-9.489884694,-1.451363877,10.05179534
41:57.9,1.42E+12,-0.9533675,-9.0832615,-0.42481658,9.143031127,-0.896440844,-9.559995904,-1.43769131,10.09521273
41:57.9,1.42E+12,-0.33275804,-9.410331,-0.6053412,9.435650238,-0.828431268,-9.628954504,-1.429871572,10.14182725
41:57.9,1.42E+12,-0.55669236,-9.905651,-1.1234138,9.984682603,-0.780860192,-9.715785938,-1.432419274,10.21413688
41:58.0,1.42E+12,-0.49726593,-10.154882,-1.5446379,10.28371567,-0.756592656,-9.780155064,-1.449872979,10.27629559
41:58.0,1.42E+12,-0.11061996,-10.810669,-2.1920416,11.03122148,-0.753473143,-9.823546824,-1.466407595,10.32187325
41:58.0,1.42E+12,0.45265868,-11.212883,-2.3376887,11.46291558,-0.760269012,-9.824633574,-1.459225529,10.32098917
41:58.0,1.42E+12,0.48514116,-11.798016,-3.0097911,12.18554004,-0.778800475,-9.831414474,-1.457947185,10.32574505
41:58.0,1.42E+12,0.60683805,-13.500575,-4.1689806,14.14263685,-0.803286556,-9.901328094,-1.484310363,10.39733665
41:58.1,1.42E+12,0.059276734,-17.723293,-5.947283,18.69461964,-0.842855273,-10.06776097,-1.542227933,10.56938321
41:58.1,1.42E+12,-3.2768357,-17.851128,-5.209916,18.88236341,-0.932324219,-10.22518559,-1.572973999,10.73300402
41:58.1,1.42E+12,-3.8613703,-14.453644,-2.2797592,15.13325172,-1.004435265,-10.31462461,-1.550311127,10.82462637
41:58.1,1.42E+12,-3.412753,-11.173814,-0.99438214,11.72560438,-1.042836407,-10.34674781,-1.497135706,10.85214698
41:58.2,1.42E+12,-2.8027716,-9.040001,-0.23590942,9.467460059,-1.066238741,-10.36195319,-1.416564254,10.8523874
41:58.2,1.42E+12,-1.9969972,-8.134833,-1.3835728,8.489863335,-1.081159711,-10.36330039,-1.368370474,10.84214264
41:58.2,1.42E+12,-2.095642,-10.558145,-5.037175,11.88441304,-1.089599159,-10.41264379,-1.43143433,10.91034411
41:58.2,1.42E+12,-2.2338047,-11.662249,-3.716322,12.44222586,-1.081581829,-10.46961233,-1.489393806,10.97447842
41:58.2,1.42E+12,-2.0419037,-9.609567,-1.9475999,10.01530299,-1.030325415,-10.44543161,-1.46140501,10.93028636
41:58.2,1.42E+12,-1.343606,-7.8311152,-2.1637504,8.234892723,-0.953023169,-10.35662429,-1.38835093,10.80408826
41:58.3,1.42E+12,-1.4102174,-6.029761,-2.5700057,6.704599923,-0.932345167,-10.22647593,-1.431335544,10.68257774
41:58.3,1.42E+12,-2.5634193,-4.420458,-2.7505302,5.803187384,-0.983152512,-10.07809251,-1.497521908,10.56158487
41:58.3,1.42E+12,-3.6082466,-4.2246647,-2.5423133,6.109876617,-1.058038785,-9.826890882,-1.514906758,10.34641295
41:58.3,1.42E+12,-3.9323227,-4.706363,-2.0718415,6.473448981,-1.177990343,-9.538506582,-1.317185908,10.02287243
41:58.3,1.42E+12,-3.522924,-4.632716,-1.4010864,5.986325596,-1.233189555,-9.381462142,-1.365891624,9.891580732
41:58.4,1.42E+12,-3.0567935,-4.221072,-1.1677217,5.340880948,-1.224962665,-9.304135942,-1.500413878,9.790235493
41:58.4,1.42E+12,-2.9205766,-3.5563047,-1.5073655,4.842439628,-1.218630831,-9.198485646,-1.650150498,9.664052452
41:58.4,1.42E+12,-2.3393354,-3.0023067,-1.0832973,3.957255195,-1.205530079,-9.0369805,-1.742616214,9.503022443
41:58.4,1.42E+12,-1.7187259,-2.6077273,-0.23052064,3.131676892,-1.204015229,-8.836885586,-1.738945847,9.310731662
41:58.4,1.42E+12,-0.8440947,-3.12086,0.07140152,3.233784343,-1.238467585,-8.657223186,-1.682881432,9.126617501
41:58.5,1.42E+12,0.23531067,-6.7038093,-0.5755531,6.732584319,-1.229731751,-8.590734452,-1.688407939,9.060574544
41:58.5,1.42E+12,2.9144394,-11.622431,-2.8077114,12.30683154,-1.144918121,-8.651603872,-1.768455481,9.131457418
41:58.5,1.42E+12,4.68376,-15.656093,-3.7751496,16.77207829,-1.024780947,-8.802256592,-1.850757335,9.302148621
41:58.5,1.42E+12,4.902755,-14.616804,-3.6670742,15.84725209,-0.901135063,-8.923860712,-1.919697971,9.446398388
41:58.5,1.42E+12,3.8058357,-10.02645,-5.8704925,12.22606916,-0.803891283,-8.942874172,-2.027988784,9.507951465
41:58.6,1.42E+12,1.2949572,-9.745185,-5.7023916,11.36498195,-0.764783607,-8.959618352,-2.117679268,9.5549498
41:58.6,1.42E+12,-0.44352767,-10.211615,-4.083209,11.00665224,-0.762915493,-8.989657872,-2.16313674,9.596843205
41:58.6,1.42E+12,-1.6690292,-9.871372,-3.078199,10.47401321,-0.793652574,-9.016607832,-2.185551132,9.631388482
41:58.6,1.42E+12,-2.9903316,-8.840017,-3.1976504,9.864732724,-0.857985792,-9.016829372,-2.199289564,9.645047448
41:58.6,1.42E+12,-3.5539095,-7.8550653,-4.746629,9.841890594,-0.926842602,-8.988858538,-2.256832894,9.653061036
41:58.7,1.42E+12,-4.137097,-7.613767,-5.577102,10.30480889,-1.003932296,-8.965369378,-2.351109837,9.682456362
41:58.7,1.42E+12,-5.090614,-8.509055,-4.893025,11.05712718,-1.090200899,-8.969773218,-2.432881793,9.736319059
41:58.7,1.42E+12,-5.2870054,-11.014096,-0.75967026,12.24090829,-1.192677793,-9.036543366,-2.392917898,9.817984412
41:58.7,1.42E+12,-5.051096,-13.86387,3.080145,15.0734122,-1.307192655,-9.161976532,-2.28170217,9.95913995
41:58.8,1.42E+12,-3.8166132,-14.809005,0.6993457,15.30889447,-1.390665071,-9.310985678,-2.23737934,10.11488334
41:58.8,1.42E+12,0.47990203,-18.259779,-5.4675303,19.06682256,-1.378477415,-9.504117068,-2.299431306,10.31775424
41:58.8,1.42E+12,3.1883698,-17.446072,-1.9236498,17.8390459,-1.293696717,-9.680674948,-2.324001214,10.50033972
41:58.8,1.42E+12,-0.97462326,-10.716515,3.197351,11.22571324,-1.284790241,-9.737185434,-2.260817606,10.56449758
