time,time_milisec,ax,ay,az,resultant,MA_x,MA_y,MA_z,MA_R
35:49.0,1.42E+12,-3.1240036,-9.354347,0.30401778,9.866895819,0,0,0,0
35:49.0,1.42E+12,-3.0262568,-9.430389,0.24983047,9.907213643,0,0,0,0
35:49.0,1.42E+12,-3.0253587,-9.360036,0.25970992,9.840249917,0,0,0,0
35:49.0,1.42E+12,-3.020868,-9.356593,0.30102402,9.836772413,0,0,0,0
35:49.0,1.42E+12,-2.9292586,-9.358239,0.29009673,9.810267542,0,0,0,0
35:49.1,1.42E+12,-2.9512627,-9.457034,0.2830614,9.91088126,0,0,0,0
35:49.1,1.42E+12,-2.946772,-9.36258,0.20582199,9.817521692,0,0,0,0
35:49.1,1.42E+12,-3.0111382,-9.3536,0.2959346,9.830786515,0,0,0,0
35:49.1,1.42E+12,-2.972818,-9.313482,0.29907808,9.781004116,0,0,0,0
35:49.1,1.42E+12,-3.0509555,-9.250164,0.366438,9.747211924,0,0,0,0
35:49.2,1.42E+12,-3.1775923,-9.221873,0.41837996,9.762944036,0,0,0,0
35:49.2,1.42E+12,-3.0505064,-9.288185,0.4872368,9.788430395,0,0,0,0
35:49.2,1.42E+12,-3.1578333,-9.353898,0.40820113,9.880989177,0,0,0,0
35:49.2,1.42E+12,-3.0657747,-9.3613825,0.5376819,9.865270328,0,0,0,0
35:49.2,1.42E+12,-3.0653257,-9.293873,0.4349954,9.795994997,0,0,0,0
35:49.3,1.42E+12,-3.1063404,-9.272917,0.4340973,9.789013272,0,0,0,0
35:49.3,1.42E+12,-3.0258079,-9.386531,0.41927812,9.871082605,0,0,0,0
35:49.3,1.42E+12,-3.035837,-9.427546,0.40954834,9.912752378,0,0,0,0
35:49.3,1.42E+12,-3.0115874,-9.32396,0.35416353,9.804658105,0,0,0,0
35:49.3,1.42E+12,-3.031496,-9.448202,0.16375946,9.92397633,0,0,0,0
35:49.4,1.42E+12,-2.9753628,-9.370514,0.3293152,9.837060786,0,0,0,0
35:49.4,1.42E+12,-3.099754,-9.270822,0.3435356,9.781341019,0,0,0,0
35:49.4,1.42E+12,-3.0223649,-9.273366,0.26779312,9.75713686,0,0,0,0
35:49.4,1.42E+12,-3.0581405,-9.268576,0.40670425,9.768527665,0,0,0,0
35:49.4,1.42E+12,-3.1014006,-9.282048,0.32317793,9.791810084,0,0,0,0
35:49.5,1.42E+12,-2.9936247,-9.199719,0.22737716,9.677206151,0,0,0,0
35:49.5,1.42E+12,-2.9413834,-9.337732,0.22947282,9.792733683,0,0,0,0
35:49.5,1.42E+12,-2.9984148,-9.346115,0.42930725,9.824696515,0,0,0,0
35:49.5,1.42E+12,-3.1341825,-9.273815,0.4619394,9.800006766,0,0,0,0
35:49.5,1.42E+12,-3.0133836,-9.311088,0.41643402,9.795420244,0,0,0,0
35:49.6,1.42E+12,-3.1130762,-9.222173,0.24863297,9.736608066,0,0,0,0
35:49.6,1.42E+12,-2.9184809,-9.2730665,0.3186873,9.726708316,0,0,0,0
35:49.6,1.42E+12,-3.0225146,-9.272018,0.29803026,9.756778891,0,0,0,0
35:49.6,1.42E+12,-3.0076954,-9.437125,0.30311966,9.909462216,0,0,0,0
35:49.6,1.42E+12,-2.9602442,-9.411978,0.33635056,9.872259483,0,0,0,0
35:49.7,1.42E+12,-3.0427227,-9.308693,0.45340714,9.80385153,0,0,0,0
35:49.7,1.42E+12,-2.9879365,-9.478739,0.31000534,9.943357626,0,0,0,0
35:49.7,1.42E+12,-3.0572424,-9.330098,0.32721955,9.823672043,0,0,0,0
35:49.7,1.42E+12,-3.102748,-9.307795,0.45056304,9.821664827,0,0,0,0
35:49.7,1.42E+12,-3.0184731,-9.150921,0.32467484,9.64136654,0,0,0,0
35:49.8,1.42E+12,-2.9529095,-9.215735,0.3625461,9.684053169,0,0,0,0
35:49.8,1.42E+12,-2.965184,-9.345067,0.42257127,9.813315437,0,0,0,0
35:49.8,1.42E+12,-3.0190718,-9.364227,0.4552034,9.849403636,0,0,0,0
35:49.9,1.42E+12,-3.0885274,-9.272468,0.32078293,9.77857689,0,0,0,0
35:49.9,1.42E+12,-3.0207183,-9.27636,0.3251239,9.761214036,0,0,0,0
35:49.9,1.42E+12,-3.0308971,-9.26663,0.26899064,9.753416056,0,0,0,0
35:49.9,1.42E+12,-3.1015503,-9.285491,0.3240761,9.795150979,0,0,0,0
35:49.9,1.42E+12,-3.0731094,-9.389524,0.26210496,9.883109902,0,0,0,0
35:49.9,1.42E+12,-3.1106813,-9.34342,0.41209304,9.856249597,0,0,0,0
35:49.9,1.42E+12,-3.1907647,-9.413774,0.50744474,9.952769487,-3.038187056,-9.32547858,0.347780788,9.814656899
35:50.0,1.42E+12,-3.1193633,-9.429491,0.55863833,9.947753751,-3.03809425,-9.32698146,0.352873199,9.816274058
35:50.0,1.42E+12,-3.1481035,-9.292826,0.38185593,9.819011389,-3.040531184,-9.3242302,0.355513709,9.814510013
35:50.0,1.42E+12,-3.1734009,-9.323213,0.37586838,9.855660858,-3.043492028,-9.32349374,0.357836878,9.814818232
35:50.0,1.42E+12,-3.023263,-9.185798,0.33739838,9.676406447,-3.043539928,-9.32007784,0.358564365,9.811610912
35:50.0,1.42E+12,-3.107987,-9.219028,0.33949402,9.734747898,-3.047114496,-9.31729362,0.359552311,9.810100519
35:50.1,1.42E+12,-3.0919702,-9.333691,0.20567231,9.834651417,-3.049928646,-9.31482676,0.358004529,9.808575923
35:50.1,1.42E+12,-3.24121,-9.33414,0.33200958,9.886447399,-3.055817406,-9.31425796,0.360528281,9.809954437
35:50.1,1.42E+12,-3.1490016,-9.310489,0.36688706,9.83544725,-3.058574674,-9.31339574,0.36194733,9.810047651
35:50.2,1.42E+12,-3.1184652,-9.225765,0.40161484,9.746838437,-3.061487618,-9.3116414,0.363998065,9.809364338
35:50.2,1.42E+12,-3.2061827,-9.237591,0.39248383,9.786048158,-3.064592162,-9.31138994,0.364518982,9.810141063
35:50.2,1.42E+12,-3.1524444,-9.38683,0.32602203,9.90741003,-3.064089204,-9.31468908,0.362671823,9.813030382
35:50.2,1.42E+12,-3.147804,-9.350156,0.23845413,9.868685202,-3.066035156,-9.3159285,0.35769617,9.814635479
35:50.2,1.42E+12,-3.1807356,-9.453741,0.15612534,9.975704134,-3.066493202,-9.31792536,0.352654654,9.816529778
35:50.2,1.42E+12,-3.161725,-9.326506,0.3302133,9.853388248,-3.068412208,-9.31722783,0.348505282,9.816292136
35:50.2,1.42E+12,-3.2457006,-9.234147,0.39233413,9.795813865,-3.072019706,-9.31603331,0.347652057,9.816288513
35:50.3,1.42E+12,-3.1900163,-9.086105,0.4646338,9.641026534,-3.073693224,-9.31229707,0.348262787,9.813328779
35:50.3,1.42E+12,-3.162324,-9.250613,0.37646714,9.783448342,-3.076423546,-9.30957871,0.347406567,9.811576093
35:50.3,1.42E+12,-3.0174253,-9.286388,0.20552261,9.766478233,-3.076055312,-9.30675555,0.343326052,9.808650611
35:50.3,1.42E+12,-2.910248,-9.527687,0.27916947,9.966157664,-3.074028524,-9.31083009,0.341826171,9.811880602
35:50.3,1.42E+12,-2.9530592,-9.326506,0.3240761,9.788222419,-3.072459788,-9.30839617,0.345032504,9.809165524
35:50.4,1.42E+12,-3.106041,-9.303753,0.2829117,9.812611763,-3.075073352,-9.30706095,0.344104434,9.808676543
35:50.4,1.42E+12,-3.034789,-9.441766,0.27961853,9.921445257,-3.073774052,-9.31047983,0.342826093,9.811478628
35:50.4,1.42E+12,-2.9897327,-9.30016,0.26524842,9.772503997,-3.073121408,-9.31101571,0.342775199,9.811785971
35:50.4,1.42E+12,-3.0841863,-9.419462,0.26854157,9.915169392,-3.073642324,-9.31403343,0.340011945,9.814718805
35:50.4,1.42E+12,-3.1452594,-9.354347,0.34548157,9.875009975,-3.0745195,-9.31547941,0.340458018,9.816382803
35:50.5,1.42E+12,-3.165617,-9.360635,0.28889924,9.885650275,-3.077959346,-9.31869773,0.341688459,9.820551685
35:50.5,1.42E+12,-3.0398786,-9.137748,0.2971321,9.634707463,-3.07992925,-9.31469805,0.343041645,9.817391161
35:50.5,1.42E+12,-3.0928683,-9.303004,0.3107538,9.808582246,-3.08181832,-9.31383583,0.340670576,9.817068876
35:50.5,1.42E+12,-3.1005025,-9.307795,0.3927832,9.818474533,-3.08114472,-9.31451543,0.339287452,9.817438231
35:50.5,1.42E+12,-3.1928604,-9.302106,0.45550278,9.845355065,-3.084734256,-9.31433579,0.340068827,9.818436927
35:50.6,1.42E+12,-3.167114,-9.355695,0.35102004,9.883463719,-3.085815012,-9.31700623,0.342116569,9.82137404
35:50.6,1.42E+12,-3.035388,-9.236243,0.24788453,9.725390059,-3.088153154,-9.31626976,0.340700513,9.821347675
35:50.6,1.42E+12,-3.272345,-9.406738,0.3143463,9.964626194,-3.093149762,-9.31896416,0.341026834,9.825504621
35:50.6,1.42E+12,-3.2636633,-9.39656,0.32093263,9.952378395,-3.09826912,-9.31815286,0.341383093,9.826362945
35:50.6,1.42E+12,-3.095413,-9.16589,0.37003052,9.681531063,-3.100972496,-9.3132311,0.342056693,9.822548377
35:50.7,1.42E+12,-2.9976664,-9.186696,0.2799179,9.66745785,-3.10007137,-9.31079116,0.338586908,9.819820503
35:50.7,1.42E+12,-2.7806177,-9.182055,0.20387603,9.596016583,-3.095924994,-9.30485748,0.336464322,9.812873682
35:50.7,1.42E+12,-2.8859985,-9.466913,0.103734285,9.897585054,-3.092500116,-9.30759378,0.331994616,9.814351942
35:50.7,1.42E+12,-2.9103978,-9.284143,0.121247865,9.730386819,-3.088653112,-9.30712074,0.325408313,9.812526382
35:50.7,1.42E+12,-2.899171,-9.279952,0.23456222,9.725107765,-3.08626707,-9.30970136,0.32360606,9.814201207
35:50.8,1.42E+12,-3.0412257,-9.330398,0.1445993,9.814595741,-3.088033394,-9.31199462,0.319247124,9.816812058
35:50.8,1.42E+12,-3.018922,-9.427995,0.1567241,9.900784929,-3.089108154,-9.31365318,0.313930181,9.818561448
35:50.8,1.42E+12,-2.9071047,-9.395811,0.088166654,9.835664464,-3.086868812,-9.31428486,0.306589446,9.818286664
35:50.8,1.42E+12,-3.0825398,-9.402996,0.017064514,9.895386632,-3.08674906,-9.31689542,0.300515078,9.820622859
35:50.8,1.42E+12,-3.0202694,-9.4474535,0.13037887,9.919344915,-3.086740082,-9.32031729,0.296620177,9.823785477
35:50.9,1.42E+12,-3.045866,-9.374406,0.27288255,9.860590876,-3.08703946,-9.32247281,0.296698015,9.825928973
35:50.9,1.42E+12,-2.9442275,-9.27636,0.29817992,9.736952382,-3.083893004,-9.32229019,0.296180092,9.824765001
35:50.9,1.42E+12,-3.0210178,-9.26169,0.34173936,9.747934961,-3.082851172,-9.31973351,0.29777278,9.822061503
35:50.9,1.42E+12,-2.9913795,-9.315578,0.4076024,9.792572926,-3.080465136,-9.31917667,0.297682967,9.820787969
35:50.9,1.42E+12,-3.0201197,-9.402846,0.41074586,9.884500395,-3.077052236,-9.31895811,0.295748989,9.819422587
35:51.0,1.42E+12,-3.0373337,-9.267677,0.30386811,9.75743659,-3.075411644,-9.31572183,0.290653585,9.815616244
35:51.0,1.42E+12,-3.008294,-9.153765,0.40266266,9.643826195,-3.072615454,-9.31294061,0.29106972,9.81211254
35:51.0,1.42E+12,-3.1205606,-9.387428,0.44622207,9.902566185,-3.071558648,-9.31422491,0.292476793,9.813050647
35:51.0,1.42E+12,-3.2064822,-9.304801,0.57001466,9.858284154,-3.075223032,-9.31660497,0.297129119,9.816688201
35:51.0,1.42E+12,-3.1398706,-9.229358,0.42272094,9.757998231,-3.075860704,-9.31681157,0.298793657,9.817153208
35:51.1,1.42E+12,-3.1250515,-9.306447,0.2639012,9.82066935,-3.07652233,-9.31626669,0.299958235,9.816873566
35:51.1,1.42E+12,-2.9666808,-9.322464,0.15432908,9.784341954,-3.071031746,-9.31603317,0.296404625,9.814831457
35:51.2,1.42E+12,-2.9422815,-9.465267,0.3252736,9.917363698,-3.066897344,-9.31912873,0.295572356,9.816469786
35:51.2,1.42E+12,-3.1519954,-9.514664,0.3215314,10.02832431,-3.067567948,-9.32490671,0.293970687,9.822099504
35:51.2,1.42E+12,-3.286865,-9.328301,0.42496628,9.899559456,-3.069181594,-9.32672091,0.294620336,9.82436973
35:51.2,1.42E+12,-3.118016,-9.254355,0.5315446,9.779961651,-3.068493026,-9.32407141,0.298730788,9.821820762
35:51.2,1.42E+12,-3.0172756,-9.304651,0.48289582,9.793552504,-3.065882458,-9.32316131,0.303619621,9.820318108
35:51.2,1.42E+12,-2.8964767,-9.315878,0.4593947,9.766586081,-3.06019728,-9.32040405,0.309685009,9.816135747
35:51.2,1.42E+12,-3.1169682,-9.256152,0.5721103,9.783616448,-3.059302144,-9.31899697,0.314522949,9.814740311
35:51.2,1.42E+12,-3.165617,-9.292526,0.6686595,9.839678652,-3.057700472,-9.32016455,0.320049456,9.815617607
35:51.3,1.42E+12,-3.0805938,-9.379196,0.4975653,9.884682443,-3.055512022,-9.32602637,0.320708086,9.820490725
35:51.3,1.42E+12,-3.1951058,-9.410031,0.36464173,9.944362628,-3.056167658,-9.32921473,0.320471578,9.823709011
35:51.3,1.42E+12,-3.1751971,-9.254056,0.34518218,9.789718066,-3.059323094,-9.32856809,0.323264769,9.824173807
35:51.3,1.42E+12,-3.0720615,-9.201365,0.41613466,9.709575057,-3.062559364,-9.32204165,0.326004073,9.819042155
35:51.3,1.42E+12,-3.301235,-9.289832,0.5622308,9.874980232,-3.06952288,-9.32130817,0.330767167,9.820777311
35:51.4,1.42E+12,-3.0692174,-9.350755,0.54337007,9.856569665,-3.068786408,-9.32224821,0.335976334,9.82165647
35:51.4,1.42E+12,-3.0614338,-9.380543,0.5005591,9.88015806,-3.069319304,-9.32102375,0.340395146,9.820830726
35:51.4,1.42E+12,-2.9482691,-9.238788,0.36958146,9.704848523,-3.068490032,-9.31979631,0.342481807,9.819477616
35:51.4,1.42E+12,-2.833907,-9.245374,0.30296996,9.674696899,-3.063484446,-9.31631455,0.343170374,9.814668166
35:51.4,1.42E+12,-2.8279192,-9.2874365,0.35491195,9.714914628,-3.057137642,-9.31497634,0.343358982,9.811466259
35:51.5,1.42E+12,-2.7731333,-9.332643,0.24983047,9.739143131,-3.049287968,-9.3144165,0.342577607,9.808536116
35:51.5,1.42E+12,-2.5589287,-9.174272,0.20776795,9.526728208,-3.03966897,-9.31514698,0.340790324,9.806376531
35:51.5,1.42E+12,-2.4739056,-9.245075,-0.066461794,9.570581897,-3.027289716,-9.3139884,0.333246012,9.801616524
35:51.5,1.42E+12,-2.3182292,-9.305848,-0.024848327,9.590287329,-3.01164425,-9.31394946,0.324893381,9.79705278
35:51.5,1.42E+12,-2.3833437,-9.451495,0.006286926,9.747365,-2.995453916,-9.31693724,0.315909064,9.795092979
35:51.6,1.42E+12,-2.2104533,-9.714349,-0.21240829,9.964928377,-2.976320702,-9.32411032,0.304640497,9.796722272
35:51.6,1.42E+12,-2.2570066,-9.634116,-0.4540059,9.905371838,-2.960753074,-9.33206778,0.290602689,9.800321908
35:51.6,1.42E+12,-2.286046,-9.455537,-0.6093828,9.747026914,-2.941027094,-9.33304376,0.272128107,9.795969922
35:51.6,1.42E+12,-2.3993604,-9.55029,-0.50609756,9.860076275,-2.923741036,-9.33611836,0.255587503,9.79412388
35:51.6,1.42E+12,-2.534829,-9.381142,-0.38529876,9.725206343,-2.912529356,-9.3404234,0.240480917,9.794997385
35:51.7,1.42E+12,-2.4037015,-9.323213,-0.15507752,9.629336975,-2.900650058,-9.34315374,0.231781009,9.794234968
35:51.7,1.42E+12,-2.3867867,-9.235345,0.05613327,9.538946428,-2.892773438,-9.34421954,0.228826154,9.793093565
35:51.7,1.42E+12,-2.2282662,-9.282198,0.05733078,9.546080703,-2.879618792,-9.34052524,0.227898084,9.786063478
35:51.7,1.42E+12,-2.2224283,-9.398207,-0.01886078,9.657423988,-2.865859402,-9.34280652,0.225095911,9.784604221
35:51.7,1.42E+12,-2.512525,-9.313033,-0.21674927,9.648437479,-2.858126482,-9.34346814,0.216069681,9.783070815
35:51.8,1.42E+12,-2.5602758,-9.48308,-0.1845662,9.824351538,-2.848507484,-9.34652178,0.209486371,9.783265931
35:51.8,1.42E+12,-2.6830206,-9.413475,-0.24863297,9.791523348,-2.841789456,-9.34623138,0.20137923,9.7810807
35:51.8,1.42E+12,-2.7481353,-9.413923,-0.2856061,9.811002228,-2.838610068,-9.34659362,0.193903775,9.780587455
35:51.8,1.42E+12,-2.6141639,-9.441167,-0.25956023,9.79983973,-2.82924255,-9.34735704,0.18837128,9.778676517
35:51.8,1.42E+12,-2.480791,-9.512868,-0.17483643,9.832575926,-2.818452982,-9.34866533,0.182266974,9.776941137
35:51.9,1.42E+12,-2.2728736,-9.453442,-0.18262024,9.724549871,-2.802993134,-9.35024605,0.173156918,9.774220317
35:51.9,1.42E+12,-2.27467,-9.450149,0.061821442,9.72025008,-2.789601984,-9.35372183,0.168429748,9.773886271
35:51.9,1.42E+12,-2.1823118,-9.544153,0.07948471,9.79079461,-2.772827864,-9.35937109,0.163184655,9.774743464
35:51.9,1.42E+12,-2.277514,-9.5440035,0.18127304,9.813660517,-2.758550554,-9.3639396,0.158658068,9.775165216
35:51.9,1.42E+12,-2.288591,-9.510773,0.445773,9.792403453,-2.74391998,-9.36609814,0.159358611,9.773323277
35:52.0,1.42E+12,-2.4170237,-9.341774,0.5387297,9.664417971,-2.73151378,-9.36758008,0.164055843,9.771462905
35:52.0,1.42E+12,-2.5569828,-9.383836,0.52480865,9.740121315,-2.722487556,-9.3721815,0.166498763,9.773388807
35:52.0,1.42E+12,-2.713108,-9.386531,0.63887143,9.791632956,-2.714338504,-9.37216356,0.17035175,9.771170142
35:52.0,1.42E+12,-2.700235,-9.546248,0.5828879,9.937901098,-2.70421356,-9.3769925,0.170609215,9.772762481
35:52.0,1.42E+12,-2.791994,-9.471404,0.5210664,9.888085478,-2.697256028,-9.38183342,0.172576124,9.775364226
35:52.1,1.42E+12,-2.7984307,-9.587113,0.50130755,9.999762963,-2.690723612,-9.38744674,0.177324251,9.778946098
35:52.1,1.42E+12,-2.896926,-9.590556,0.6637198,10.04049145,-2.689328516,-9.39280858,0.187512065,9.784069088
35:52.1,1.42E+12,-2.8135493,-9.273216,0.7047345,9.716236173,-2.686753872,-9.38896756,0.195101283,9.780046538
35:52.1,1.42E+12,-2.891537,-9.154663,0.9656419,9.648901758,-2.681544704,-9.38176754,0.207983493,9.772458087
35:52.2,1.42E+12,-2.7473867,-9.338779,1.1838881,9.806248922,-2.670755138,-9.3819771,0.22316193,9.770591876
35:52.2,1.42E+12,-2.5738976,-9.376053,1.2548405,9.803567891,-2.65987277,-9.38441106,0.237627848,9.771064001
35:52.2,1.42E+12,-2.497706,-9.352701,1.065634,9.738948972,-2.649481378,-9.38537206,0.249282611,9.76997193
35:52.3,1.42E+12,-2.2305117,-9.509275,1.1114388,9.830401298,-2.636162078,-9.38924,0.262323493,9.771248235
35:52.3,1.42E+12,-2.4783962,-9.499396,1.2804374,9.900529886,-2.623390638,-9.39410488,0.276490035,9.773586503
35:52.3,1.42E+12,-2.5424628,-9.570947,1.2475058,9.981152954,-2.610927554,-9.3996733,0.288066961,9.776415989
35:52.3,1.42E+12,-2.407743,-9.299711,1.3847704,9.705639603,-2.597470538,-9.3980836,0.305811063,9.772835133
35:52.3,1.42E+12,-2.288591,-9.271271,1.357527,9.645568634,-2.579340242,-9.3953084,0.325668769,9.766859253
35:52.3,1.42E+12,-2.2152433,-9.224118,1.4596148,9.59802746,-2.560141166,-9.39470964,0.347957421,9.763025441
35:52.3,1.42E+12,-2.0746856,-9.341025,1.4736855,9.681467727,-2.540193648,-9.39750284,0.369108438,9.762463294
35:52.3,1.42E+12,-1.8890717,-9.497001,1.3338761,9.774499748,-2.511950382,-9.40164622,0.384541344,9.760453684
35:52.4,1.42E+12,-3.1509476,-9.505683,1.1280541,10.07764785,-2.513584986,-9.40474478,0.396235024,9.764875248
35:52.4,1.42E+12,-3.4519715,-9.221125,1.0015672,9.896887913,-2.52139574,-9.40155642,0.406255186,9.765209845
35:52.5,1.42E+12,-3.2608192,-9.581426,-0.31734008,10.12607381,-2.527646742,-9.40840918,0.392516756,9.773634351
35:52.5,1.42E+12,-2.4132814,-9.853709,-0.24983047,10.14800096,-2.51923423,-9.42057588,0.381460747,9.783100432
35:52.5,1.42E+12,-1.6528629,-9.784103,-0.07768845,9.923036973,-2.495733104,-9.43050921,0.372808739,9.787262879
35:52.5,1.42E+12,-1.6971707,-9.551338,0.54606444,9.716307547,-2.474213852,-9.43488311,0.378733418,9.786806167
35:52.5,1.42E+12,-2.1799169,-9.577234,2.0743864,10.03885092,-2.466633616,-9.44294235,0.416065787,9.797048622
35:52.5,1.42E+12,-2.4737558,-9.519005,2.0857627,10.05392113,-2.46663062,-9.44842095,0.459110277,9.806715406
35:52.5,1.42E+12,-2.0675006,-9.299861,1.4983841,9.644020337,-2.461616048,-9.44830121,0.489574926,9.807790066
35:52.5,1.42E+12,-1.7051042,-9.260044,1.0904824,9.478657451,-2.448051258,-9.44447219,0.511258835,9.802415915
35:52.6,1.42E+12,-1.698967,-9.038654,0.7529343,9.2277118,-2.437821532,-9.43095829,0.530565687,9.787671584
35:52.6,1.42E+12,-2.146237,-9.230405,1.0138417,9.530717954,-2.43560614,-9.42288407,0.559922639,9.780178506
35:52.6,1.42E+12,-2.3879843,-9.520502,1.3980926,9.914488906,-2.437644906,-9.42418337,0.600072147,9.783527746
35:52.6,1.42E+12,-2.3921754,-9.697434,1.1684701,10.05624441,-2.437501206,-9.42712625,0.6335635,9.787451109
35:52.6,1.42E+12,-2.5021966,-9.606573,0.84169966,9.962715039,-2.436848558,-9.43163487,0.658103469,9.792201283
35:52.7,1.42E+12,-2.5048912,-9.519604,0.9852512,9.892828724,-2.438872352,-9.43556269,0.680910043,9.797471118
35:52.7,1.42E+12,-2.5087829,-9.402697,1.163231,9.800908574,-2.441312276,-9.43890973,0.703051998,9.802710361
35:52.7,1.42E+12,-2.4822881,-9.374556,1.1073972,9.760654843,-2.446392714,-9.44075689,0.724053326,9.807001843
35:52.7,1.42E+12,-2.274071,-9.321116,1.2745994,9.67880189,-2.447425568,-9.43921507,0.74992253,9.807429401
35:52.8,1.42E+12,-1.9679576,-9.432186,1.215173,9.71162372,-2.43653422,-9.44159813,0.778560975,9.808693126
35:52.8,1.42E+12,-1.8242564,-9.413475,1.3534855,9.683663872,-2.421813832,-9.44020603,0.809322009,9.805879373
35:52.8,1.42E+12,-1.9510428,-9.426797,1.3820759,9.725286807,-2.407174276,-9.44047247,0.841936186,9.804554642
35:52.8,1.42E+12,-1.9131715,-9.310938,1.4102174,9.609500754,-2.390475,-9.43841277,0.875852656,9.800524613
35:52.8,1.42E+12,-1.9221529,-9.386531,1.3802797,9.680227685,-2.37663478,-9.43732005,0.908649455,9.798132372
35:52.8,1.42E+12,-2.0040326,-9.243428,1.5871495,9.590419771,-2.367099612,-9.43193125,0.943889174,9.793289249
35:52.9,1.42E+12,-2.2361999,-9.328002,1.6073575,9.726037705,-2.366366138,-9.42942245,0.979688728,9.793319005
35:52.9,1.42E+12,-2.3406825,-9.314381,1.3497432,9.698365568,-2.367686388,-9.42670709,1.005447164,9.792881315
35:52.9,1.42E+12,-2.3815475,-9.368717,1.2156221,9.742810878,-2.371671102,-9.42319837,1.028169911,9.79192164
35:52.9,1.42E+12,-2.3785539,-9.358688,1.3605208,9.751593541,-2.3736919,-9.41949206,1.051754867,9.790680301
35:52.9,1.42E+12,-2.2876928,-9.525292,1.1729608,9.866132123,-2.373673936,-9.41978244,1.066298623,9.792154874
35:53.0,1.42E+12,-2.1457877,-9.647288,1.2124786,9.957141907,-2.368249216,-9.42589272,1.079773601,9.798009353
35:53.0,1.42E+12,-2.1534219,-9.6091175,1.0401869,9.902239837,-2.360177998,-9.43039835,1.090081166,9.801251723
35:53.0,1.42E+12,-1.9734961,-9.6898,1.2368779,9.965780343,-2.34538576,-9.43646373,1.102041295,9.804734671
35:53.0,1.42E+12,-1.9818786,-9.78126,1.1298505,10.04377679,-2.331018632,-9.44116397,1.112980547,9.806852185
35:53.0,1.42E+12,-2.112557,-9.513167,1.2049942,9.819126971,-2.317429892,-9.44199923,1.126659103,9.805473015
35:53.1,1.42E+12,-1.9166144,-9.566008,1.2002041,9.829669867,-2.299793566,-9.44157713,1.140637034,9.802071153
35:53.1,1.42E+12,-1.7991087,-9.354048,1.3391153,9.619159833,-2.27783722,-9.43684697,1.154144944,9.793644521
35:53.1,1.42E+12,-1.7937199,-9.379795,1.5985259,9.682627245,-2.257440632,-9.43897855,1.172020772,9.792972342
35:53.1,1.42E+12,-1.9341279,-9.370963,1.4910493,9.683957161,-2.23829245,-9.44330455,1.18252892,9.79367345
35:53.1,1.42E+12,-1.8729053,-9.332643,1.4754817,9.632395646,-2.220802822,-9.44318183,1.188360792,9.790196385
35:53.2,1.42E+12,-1.9844234,-9.352701,1.5202386,9.681016353,-2.209013338,-9.44271479,1.193668754,9.787745354
35:53.2,1.42E+12,-2.14474,-9.365274,1.6859441,9.754520709,-2.201954018,-9.44296625,1.206074956,9.788056789
35:53.2,1.42E+12,-2.1285737,-9.377849,1.5582596,9.741819689,-2.199915258,-9.44033773,1.215011372,9.786285156
35:53.2,1.42E+12,-2.189946,-9.518556,1.5332615,9.886842905,-2.194146254,-9.44072093,1.220067854,9.786011417
35:53.2,1.42E+12,-2.0679498,-9.2907295,1.475332,9.631753502,-2.184655994,-9.43511658,1.224624378,9.779023428
35:53.3,1.42E+12,-2.1035757,-9.415121,1.4682966,9.75835176,-2.178572648,-9.43742478,1.226294902,9.780077671
35:53.3,1.42E+12,-2.030677,-9.515263,1.2928615,9.815058324,-2.173414368,-9.44230462,1.225001592,9.783467465
35:53.3,1.42E+12,-2.0706441,-9.565558,1.3623171,9.881466223,-2.170522384,-9.44913342,1.223055638,9.78913624
35:53.3,1.42E+12,-2.2357507,-9.710307,1.5001804,10.07666534,-2.173743686,-9.45651906,1.223585536,9.797040192
35:53.3,1.42E+12,-2.5414152,-9.514664,1.4148577,9.949343926,-2.186790556,-9.45687232,1.225205168,9.800537076
35:53.4,1.42E+12,-2.497706,-9.377399,1.5488292,9.827157227,-2.173725724,-9.45430664,1.23362067,9.795527263
35:53.4,1.42E+12,-2.3017635,-9.394614,1.4281801,9.777350654,-2.150721564,-9.45777642,1.242152928,9.793136518
35:53.4,1.42E+12,-2.1459374,-9.520951,1.698967,9.906565708,-2.128423928,-9.45656692,1.28247907,9.788746356
35:53.4,1.42E+12,-2.1377046,-9.56466,1.7389339,9.953712523,-2.122912392,-9.45078594,1.322254357,9.784860587
35:53.4,1.42E+12,-2.2079086,-9.48817,1.7043557,9.889644012,-2.134013306,-9.44486728,1.35789524,9.784192728
35:53.5,1.42E+12,-2.2393432,-9.461974,1.8127304,9.890884766,-2.144856756,-9.44308,1.383228559,9.787684272
35:53.5,1.42E+12,-2.1820126,-9.338631,1.7808467,9.754108002,-2.14489867,-9.43830794,1.377357765,9.781989414
35:53.5,1.42E+12,-2.2766159,-9.342671,1.8781444,9.797750138,-2.140955872,-9.43478126,1.373205399,9.776865994
35:53.5,1.42E+12,-2.1959336,-9.351503,1.7910255,9.771412645,-2.143524532,-9.4358141,1.379058227,9.77941384
35:53.5,1.42E+12,-2.2008734,-9.451795,1.6938776,9.851370147,-2.153439916,-9.43964912,1.391126131,9.786868094
35:53.6,1.42E+12,-2.069147,-9.369316,1.7437239,9.752231778,-2.160843516,-9.44626236,1.410941923,9.797358494
35:53.6,1.42E+12,-1.9338286,-9.355096,1.8758991,9.735322884,-2.156595348,-9.44875618,1.428183071,9.801450593
35:53.6,1.42E+12,-1.9053878,-9.340576,1.936523,9.727640208,-2.146943418,-9.44515766,1.438951679,9.797713619
35:53.6,1.42E+12,-1.9300864,-9.398954,1.6952248,9.743682924,-2.137701638,-9.43918806,1.449486773,9.791462389
35:53.6,1.42E+12,-2.089954,-9.373208,1.6711249,9.747696875,-2.129456786,-9.43452076,1.466075278,9.787162026
35:53.7,1.42E+12,-2.237547,-9.379795,1.7098943,9.793411527,-2.124109902,-9.43172458,1.48056814,9.785173682
35:53.7,1.42E+12,-2.3480172,-9.233997,1.7429755,9.685961437,-2.120894588,-9.42835058,1.49216303,9.782874739
35:54.1,1.42E+12,-1.9685564,-9.142388,1.7188755,9.508575373,-2.110619954,-9.42370722,1.504392596,9.777833149
35:54.1,1.42E+12,-1.5983762,-9.344318,1.7688717,9.64365037,-2.097106058,-9.42417126,1.514278042,9.777130119
35:54.1,1.42E+12,-1.3921051,-9.382938,1.8037491,9.655619759,-2.085589008,-9.4231863,1.526049564,9.77601004
35:54.1,1.42E+12,-1.4242882,-9.609267,1.8450632,9.887915218,-2.077589644,-9.42710214,1.535881118,9.780095067
35:54.1,1.42E+12,-1.8233583,-9.789792,1.7829423,10.11649871,-2.075035954,-9.43436204,1.543898446,9.787919305
35:54.1,1.42E+12,-1.9999909,-9.493708,1.5756235,9.829193487,-2.076772342,-9.43801744,1.547206568,9.792313159
35:54.1,1.42E+12,-2.0604653,-9.61256,1.3846207,9.927940445,-2.07953859,-9.44253802,1.547293388,9.797267415
35:54.1,1.42E+12,-2.1598585,-9.477691,1.3202546,9.809928014,-2.082655108,-9.44722328,1.54195549,9.80165758
35:54.1,1.42E+12,-2.1501288,-9.456884,1.5699353,9.82447992,-2.080933686,-9.44980092,1.541207046,9.803626424
35:54.1,1.42E+12,-2.1576133,-9.474997,1.705254,9.866040468,-2.077272302,-9.45301324,1.548317262,9.806979922
35:54.1,1.42E+12,-1.9049387,-9.383836,1.6184344,9.711050377,-2.067740126,-9.45331562,1.556373508,9.806344712
35:54.1,1.42E+12,-1.91871,-9.27636,1.5765216,9.60300595,-2.058543248,-9.45166906,1.560693524,9.80337296
35:54.1,1.42E+12,-1.8958076,-9.229957,1.4693445,9.536517495,-2.050705544,-9.44576236,1.566621198,9.796780667
35:54.1,1.42E+12,-2.1396506,-9.5109215,1.420995,9.85164754,-2.050582802,-9.44303503,1.570791526,9.79467078
35:54.1,1.42E+12,-2.085014,-9.468261,1.4197975,9.798524108,-2.049214644,-9.4402179,1.578383738,9.792596466
35:54.1,1.42E+12,-2.027384,-9.384135,1.7670753,9.761907124,-2.050292402,-9.4341046,1.588987686,9.788519001
35:54.2,1.42E+12,-2.16884,-9.443263,1.8729053,9.868477962,-2.05403163,-9.42734466,1.603848782,9.785013025
35:54.2,1.42E+12,-2.0541782,-9.277258,1.6910335,9.651256829,-2.052864054,-9.42262648,1.613569568,9.781655622
35:54.2,1.42E+12,-1.9842737,-9.3289,1.7684226,9.700156484,-2.05421724,-9.41788432,1.624933938,9.779065354
35:54.2,1.42E+12,-2.0678,-9.254206,1.8501526,9.661220946,-2.059591066,-9.41588748,1.635154684,9.779906576
35:54.2,1.42E+12,-2.1424947,-9.456435,1.7423767,9.851412234,-2.066566562,-9.41742028,1.6380317,9.783282276
35:54.2,1.42E+12,-1.9722986,-9.389375,1.7540524,9.753308386,-2.067329976,-9.41778852,1.643291762,9.784669301
35:54.2,1.42E+12,-2.1287234,-9.29522,1.7419276,9.693652043,-2.072446338,-9.41704006,1.64862068,9.785894429
35:54.3,1.42E+12,-2.2330563,-9.457334,1.6709752,9.860013435,-2.077418996,-9.41913272,1.651635412,9.78947437
35:54.3,1.42E+12,-2.1218376,-9.495654,1.6441809,9.867774345,-2.076960948,-9.42174032,1.650800148,9.791739443
35:54.3,1.42E+12,-2.0974383,-9.474098,1.7262104,9.855840029,-2.07633824,-9.4236653,1.654159164,9.79401985
35:54.3,1.42E+12,-2.218686,-9.353748,1.6482224,9.753553521,-2.07691304,-9.42036914,1.656458382,9.791354062
35:54.4,1.42E+12,-2.0600162,-9.303603,1.7224681,9.683366764,-2.076754368,-9.42062661,1.661401104,9.792386327
35:54.4,1.42E+12,-1.9860699,-9.436077,1.9100281,9.830169385,-2.074404252,-9.42104573,1.670235734,9.79382268
35:54.4,1.42E+12,-2.1314178,-9.209748,1.773063,9.618011877,-2.076419068,-9.41493543,1.679839764,9.789881751
35:54.4,1.42E+12,-2.331851,-9.382639,1.7082477,9.817818184,-2.081643206,-9.41127705,1.686758376,9.78860879
35:54.4,1.42E+12,-2.2818549,-9.423204,1.7515078,9.852482681,-2.08256529,-9.40553499,1.691784924,9.784125137
35:54.4,1.42E+12,-2.1877007,-9.473201,1.825454,9.892413954,-2.075491,-9.40470573,1.69999685,9.782986537
35:54.5,1.42E+12,-2.1936882,-9.408984,1.7878821,9.825363618,-2.069410644,-9.40533743,1.704777908,9.782950665
35:54.5,1.42E+12,-2.0935464,-9.452244,1.6359481,9.818562998,-2.065246302,-9.40649003,1.708933268,9.783774912
35:54.5,1.42E+12,-2.1489313,-9.270672,1.6432828,9.657310362,-2.06530618,-9.40148445,1.707819584,9.778789805
35:54.5,1.42E+12,-2.206262,-9.384135,1.590742,9.770365491,-2.066677328,-9.39787395,1.704855746,9.775122865
35:54.5,1.42E+12,-2.4499552,-9.360186,1.6973205,9.823250955,-2.07151826,-9.39531427,1.704715042,9.773795003
35:54.6,1.42E+12,-2.502047,-9.353001,1.6498691,9.821452792,-2.076772336,-9.39313481,1.701457816,9.772406364
35:54.6,1.42E+12,-2.364932,-9.465567,1.7155824,9.906214462,-2.080430724,-9.39567353,1.70015253,9.775448493
35:54.6,1.42E+12,-2.449656,-9.423354,1.6453785,9.874597994,-2.083891526,-9.39728719,1.695497212,9.77698545
35:54.6,1.42E+12,-2.2493725,-9.301806,1.6435821,9.710027478,-2.084960304,-9.39629325,1.692548344,9.775757747
35:54.6,1.42E+12,-2.0935464,-9.354796,1.7244141,9.740058969,-2.082813764,-9.39435327,1.693159074,9.773531523
35:54.7,1.42E+12,-2.2098546,-9.516161,1.6914825,9.914730989,-2.085627916,-9.39729017,1.692114246,9.776781508
35:55.0,1.42E+12,-2.242337,-9.393866,1.7458196,9.814309946,-2.091798084,-9.39806557,1.689512656,9.778361249
35:55.0,1.42E+12,-2.0761826,-9.470655,1.7741107,9.856536364,-2.09521398,-9.40066715,1.68626441,9.780939172
35:55.0,1.42E+12,-2.0877085,-9.4297905,1.7877324,9.822192362,-2.098366422,-9.40128388,1.688114562,9.782509361
35:55.0,1.42E+12,-2.287543,-9.30016,1.8178198,9.748348467,-2.102318202,-9.39982292,1.69104846,9.782522393
35:55.0,1.42E+12,-2.2968237,-9.319321,1.904789,9.785364794,-2.103503736,-9.39861344,1.694946354,9.782361458
35:55.0,1.42E+12,-2.3171813,-9.255853,1.8883232,9.726556865,-2.102887018,-9.39905056,1.697853308,9.783173366
35:55.0,1.42E+12,-2.3079007,-9.325308,1.6639398,9.749690795,-2.109673904,-9.40270896,1.696754594,9.787995675
35:55.0,1.42E+12,-2.1239333,-9.3067465,1.7238153,9.700420726,-2.120185046,-9.40195753,1.695853466,9.789131082
35:55.0,1.42E+12,-2.194287,-9.33429,1.7622854,9.749334084,-2.136228684,-9.40098457,1.695024192,9.791005369
35:55.0,1.42E+12,-2.1835093,-9.347312,1.8666184,9.778763661,-2.151413106,-9.39574547,1.695455296,9.788822337
35:55.0,1.42E+12,-2.0814216,-9.409284,1.6952248,9.784719127,-2.156574372,-9.38813531,1.693700946,9.782186746
35:55.0,1.42E+12,-2.251468,-9.611961,1.7329463,10.02307365,-2.161603914,-9.39050037,1.696847402,9.786064349
35:55.0,1.42E+12,-2.2288651,-9.6107645,1.7416283,10.01837826,-2.16497191,-9.39046446,1.703987554,9.787873105
35:55.0,1.42E+12,-2.2140458,-9.681867,1.393153,10.029029,-2.166055656,-9.39454798,1.705445522,9.792255125
35:55.0,1.42E+12,-2.2318587,-9.621542,1.3933026,9.97479603,-2.167690254,-9.39784114,1.701912868,9.795261447
35:55.0,1.42E+12,-2.151925,-9.602232,1.5858023,9.967367231,-2.167576488,-9.40038584,1.699523834,9.797287982
35:55.1,1.42E+12,-2.1309686,-9.532477,1.5718813,9.893429929,-2.172097086,-9.40335866,1.698592772,9.800935574
35:55.1,1.42E+12,-2.274969,-9.398356,1.3404624,9.762244563,-2.179222266,-9.40579858,1.693871588,9.804120346
35:55.1,1.42E+12,-2.4040008,-9.352701,1.475332,9.76876862,-2.18938613,-9.40825346,1.693991338,9.808765368
35:55.1,1.42E+12,-2.3110442,-9.49251,1.685495,9.91410938,-2.192814002,-9.40788523,1.699281338,9.810014605
35:55.1,1.42E+12,-1.9197578,-9.262139,1.7251625,9.615033776,-2.189508878,-9.40376279,1.705388638,9.806344798
35:55.1,1.42E+12,-1.9966979,-9.30959,1.5952327,9.654016565,-2.188895156,-9.40227189,1.701951786,9.804186987
35:55.2,1.42E+12,-2.169738,-9.132659,1.527274,9.510299116,-2.188913116,-9.39605981,1.69503916,9.79702341
35:55.2,1.42E+12,-2.121688,-9.112151,1.694626,9.508134049,-2.190263312,-9.39275767,1.69511101,9.794160955
35:55.2,1.42E+12,-1.8968555,-9.277857,1.6610957,9.614360625,-2.188514948,-9.39173681,1.692964472,9.792445038
35:55.2,1.42E+12,-2.0612137,-9.460028,1.5236815,9.801139576,-2.188383222,-9.39585325,1.68643505,9.79524341
35:55.2,1.42E+12,-2.1029768,-9.4474535,1.557062,9.80312864,-2.187592864,-9.39567362,1.682728756,9.794277738
35:55.3,1.42E+12,-2.0354671,-9.48308,1.3224999,9.788817017,-2.188856234,-9.39754772,1.674097706,9.794987911
35:55.3,1.42E+12,-2.011517,-9.419612,1.5257771,9.752091398,-2.186512106,-9.40003556,1.669774696,9.796156698
35:55.3,1.42E+12,-2.073039,-9.389824,1.5733781,9.7438085,-2.18331176,-9.39868536,1.667822754,9.793832599
35:55.3,1.42E+12,-2.3653812,-9.443413,1.5187417,9.852900774,-2.188182632,-9.39764054,1.66531397,9.793535128
35:55.4,1.42E+12,-2.2131476,-9.380094,1.441203,9.744806403,-2.190496818,-9.39576046,1.659613822,9.791314455
35:55.4,1.42E+12,-2.2453308,-9.362431,1.3281881,9.719089888,-2.191029714,-9.39593412,1.653213136,9.790625183
35:55.4,1.42E+12,-2.2691314,-9.461974,1.2609777,9.811624435,-2.195212018,-9.39910154,1.643983328,9.793190336
35:55.4,1.42E+12,-2.214944,-9.620494,1.323398,9.960485128,-2.1997895,-9.40278988,1.632250726,9.795796651
35:55.4,1.42E+12,-2.0652552,-9.50254,1.3473482,9.817275216,-2.198466248,-9.40864572,1.62373643,9.799781918
35:55.4,1.42E+12,-2.0395088,-9.539513,1.3266912,9.844897865,-2.192619404,-9.4117832,1.6161053,9.800323511
35:55.5,1.42E+12,-2.131268,-9.458382,1.2737013,9.778834713,-2.189607666,-9.41248676,1.60654917,9.798850552
35:55.5,1.42E+12,-1.9202069,-9.404793,1.2858261,9.684558569,-2.18425779,-9.4111186,1.595756612,9.794693444
35:55.5,1.42E+12,-1.8477576,-9.443562,1.3127701,9.711767951,-2.177339178,-9.41181016,1.586254372,9.792421531
35:55.5,1.42E+12,-1.936523,-9.535022,1.5274237,9.848847091,-2.17419871,-9.41346572,1.584083884,9.793027213
35:55.5,1.42E+12,-1.8594333,-9.624835,1.549877,9.924568489,-2.16840875,-9.42054898,1.582215768,9.798372375
35:55.6,1.42E+12,-2.1465364,-9.481133,1.4597644,9.830076988,-2.167214238,-9.42248894,1.579596216,9.799566605
35:55.6,1.42E+12,-2.0441492,-9.530082,1.457519,9.85522047,-2.159098118,-9.42588686,1.574800186,9.800205996
35:55.6,1.42E+12,-1.9360739,-9.570648,1.4805712,9.876121524,-2.147778656,-9.4302398,1.571414228,9.80129937
35:55.6,1.42E+12,-1.8838326,-9.501192,1.3795313,9.783893974,-2.138156668,-9.4309523,1.564693206,9.79885296
35:55.6,1.42E+12,-1.7455201,-9.504335,1.4486874,9.771280335,-2.12407395,-9.43257192,1.560759384,9.796786607
35:55.7,1.42E+12,-1.7036073,-9.625134,1.6913328,9.919984324,-2.113158646,-9.43903848,1.561714398,9.800985744
35:55.7,1.42E+12,-1.6684304,-9.472302,1.6501684,9.75864852,-2.104656326,-9.4413886,1.560229484,9.801357535
35:55.7,1.42E+12,-1.5655943,-9.499546,1.4624588,9.738133572,-2.09177112,-9.4410563,1.55564901,9.797825587
35:55.7,1.42E+12,-1.6555573,-9.497749,1.413361,9.744008177,-2.080035526,-9.44313396,1.548999838,9.796419552
35:55.7,1.42E+12,-1.8046472,-9.503437,1.5238311,9.7925547,-2.074604818,-9.4437896,1.543994246,9.795139918
35:55.8,1.42E+12,-1.6423846,-9.43503,1.8145267,9.747293236,-2.06569834,-9.44389439,1.544530132,9.793641936
35:55.8,1.42E+12,-1.6323555,-9.484128,1.6205301,9.759066872,-2.05259459,-9.44757375,1.540584338,9.793856304
35:55.8,1.42E+12,-1.6420853,-9.221724,1.5923886,9.50117567,-2.039499822,-9.44562181,1.53433633,9.788172521
35:55.8,1.42E+12,-1.5980768,-9.3381815,1.37534,9.573246226,-2.025117732,-9.44726838,1.524076666,9.785106309
35:55.8,1.42E+12,-1.5127542,-9.468261,1.1912228,9.662059997,-2.009214802,-9.45012744,1.514622326,9.783353693
35:55.9,1.42E+12,-1.3558804,-9.551937,1.239273,9.726957884,-1.993853744,-9.45503125,1.50493148,9.783884436
35:55.9,1.42E+12,-1.5573615,-9.460028,1.2422667,9.667509046,-1.981115234,-9.45754601,1.494531106,9.782247935
35:55.9,1.42E+12,-1.5018269,-9.533226,1.0955718,9.712783307,-1.967481586,-9.46126429,1.479110174,9.780928328
35:55.9,1.42E+12,-1.5847545,-9.456136,1.213227,9.664464529,-1.957548244,-9.46220133,1.469470218,9.778523236
35:55.9,1.42E+12,-1.3656102,-9.436676,1.1708652,9.606595155,-1.939831088,-9.45869563,1.458228596,9.770193666
35:56.0,1.42E+12,-1.317111,-9.505533,1.1837384,9.669083493,-1.921596006,-9.456591,1.447070798,9.763207771
35:56.1,1.42E+12,-1.4055771,-9.567953,1.1332933,9.736823163,-1.905426632,-9.45431272,1.441873604,9.757363654
35:56.1,1.42E+12,-1.4720389,-9.619745,0.9116043,9.774324262,-1.890230236,-9.45427678,1.432239638,9.753354219
35:56.1,1.42E+12,-1.5221846,-9.640253,0.9463321,9.805461147,-1.877635428,-9.4550372,1.419450234,9.750116097
35:56.1,1.42E+12,-1.7127384,-9.581875,0.99438214,9.784405817,-1.869270824,-9.45602516,1.407900251,9.747935615
35:56.1,1.42E+12,-1.7739611,-9.623188,0.80337936,9.818253595,-1.859250666,-9.4605218,1.39715859,9.749055795
35:56.1,1.42E+12,-1.6531622,-9.335337,0.8491841,9.518538533,-1.844233894,-9.46017452,1.384635632,9.744051194
35:56.1,1.42E+12,-1.6000228,-9.324859,0.8771759,9.501710682,-1.830013466,-9.4568215,1.36846925,9.73580322
35:56.1,1.42E+12,-1.703308,-9.503288,1.1487112,9.722822552,-1.82568447,-9.46164448,1.356940224,9.737958995
35:56.1,1.42E+12,-1.7155824,-9.369166,1.1835887,9.598196535,-1.82006216,-9.462836,1.348707344,9.736842595
35:56.2,1.42E+12,-1.7166302,-9.643396,0.981509,9.844047215,-1.811000004,-9.47305074,1.337792044,9.743517557
35:56.2,1.42E+12,-1.6575032,-9.676927,0.6893166,9.842021662,-1.801716308,-9.48434626,1.317685856,9.750195309
35:56.2,1.42E+12,-1.8037491,-9.604477,0.9285191,9.816396334,-1.79985418,-9.49087866,1.303034324,9.754236023
35:56.2,1.42E+12,-2.0460951,-9.495953,1.119522,9.778187871,-1.799551808,-9.49159716,1.294951134,9.753776989
35:56.2,1.42E+12,-1.9368224,-9.393866,1.0413845,9.64782261,-1.79622872,-9.49052541,1.284637584,9.750670868
35:56.3,1.42E+12,-1.8661693,-9.501042,0.9607022,9.730125162,-1.792842764,-9.49088465,1.27740163,9.749497031
35:56.3,1.42E+12,-1.8640736,-9.389524,0.8798703,9.613121401,-1.789893896,-9.49028289,1.264483494,9.746717631
35:56.3,1.42E+12,-1.8959574,-9.392518,1.0318043,9.637357986,-1.786352264,-9.49033677,1.253652018,9.744588621
35:56.4,1.42E+12,-1.8477576,-9.527687,0.9630972,9.752875675,-1.775999792,-9.49202225,1.242539128,9.742588119
35:56.4,1.42E+12,-1.868714,-9.633068,0.8551717,9.849843133,-1.76911112,-9.49708173,1.230818502,9.744688854
35:56.4,1.42E+12,-1.9209553,-9.585617,0.66536635,9.798818037,-1.76262361,-9.50154545,1.217562067,9.746283417
35:56.4,1.42E+12,-1.9202069,-9.577683,0.48783553,9.78044936,-1.75564512,-9.50385963,1.202099224,9.745659915
35:56.4,1.42E+12,-2.1483326,-9.554032,0.5863307,9.810129668,-1.754312892,-9.50253039,1.187357878,9.742652806
35:56.4,1.42E+12,-2.1703367,-9.633817,0.45625123,9.885795697,-1.756414522,-9.50515593,1.169535938,9.744023215
35:56.4,1.42E+12,-2.2706282,-9.877211,0.5628296,10.15045943,-1.76103691,-9.51190989,1.154258706,9.750134447
35:56.5,1.42E+12,-2.2848487,-9.692794,0.5093907,9.971472709,-1.764108524,-9.51659813,1.138972494,9.753987207
35:56.5,1.42E+12,-2.1532722,-9.642648,0.5834866,9.897358144,-1.76876983,-9.52135523,1.124925704,9.758243198
35:56.5,1.42E+12,-2.147584,-9.631122,0.62315416,9.887312533,-1.774766358,-9.52510643,1.111133385,9.76175409
35:56.5,1.42E+12,-2.1624033,-9.5175085,0.6996451,9.785114171,-1.779283964,-9.52475616,1.094577813,9.760479431
35:56.5,1.42E+12,-2.2897882,-9.422306,0.8171507,9.730915457,-1.787891062,-9.52070558,1.079923287,9.756606371
35:56.6,1.42E+12,-2.1671934,-9.433982,0.6572832,9.701997981,-1.788304202,-9.51976256,1.063873663,9.754044791
35:56.6,1.42E+12,-2.1848567,-9.5616665,0.61372375,9.82729474,-1.791118352,-9.52039425,1.046997758,9.753486276
35:56.6,1.42E+12,-2.249073,-9.484726,0.7012917,9.772930303,-1.797378334,-9.51867581,1.031412168,9.751422452
35:56.7,1.42E+12,-2.2637424,-9.48308,0.6638695,9.772106152,-1.80497653,-9.51831357,1.017098932,9.751186695
35:56.7,1.42E+12,-2.2198837,-9.418115,0.8044272,9.709576557,-1.814463802,-9.51658917,1.004213728,9.74995262
35:56.7,1.42E+12,-2.1080663,-9.462722,0.8370593,9.730761504,-1.822552982,-9.51334093,0.987128258,9.746168163
35:56.7,1.42E+12,-2.167792,-9.539662,0.98929274,9.83276021,-1.832540214,-9.51468813,0.973910745,9.747650397
35:56.7,1.42E+12,-2.1454885,-9.548943,0.8370593,9.822733916,-1.844138098,-9.51567607,0.961402755,9.749342404
35:56.7,1.42E+12,-2.1224363,-9.453591,0.8105644,9.722763665,-1.853475678,-9.51479291,0.949346823,9.748917514
35:56.7,1.42E+12,-2.1676424,-9.354946,0.70368665,9.628544186,-1.860735582,-9.51182309,0.932943934,9.745637303
35:56.8,1.42E+12,-2.1290226,-9.450897,0.78227323,9.719266574,-1.870468342,-9.51214043,0.912298865,9.74507677
35:56.8,1.42E+12,-2.282753,-9.612411,0.6647676,9.902086773,-1.883476292,-9.51470609,0.893183615,9.747937168
35:56.8,1.42E+12,-2.2080584,-9.507479,0.5752537,9.777453434,-1.894795754,-9.52042119,0.872840917,9.753462723
35:56.8,1.42E+12,-2.0921993,-9.492809,0.7140152,9.74682196,-1.904678204,-9.52351374,0.859614421,9.756934238
35:56.8,1.42E+12,-2.0622616,-9.563462,0.83571213,9.818917613,-1.915668352,-9.52541776,0.852504207,9.76007139
35:56.9,1.42E+12,-1.9856209,-9.581725,0.7674541,9.815351758,-1.928263162,-9.52601352,0.843067829,9.761839268
35:56.9,1.42E+12,-1.9284397,-9.605675,0.7569759,9.826539798,-1.935684726,-9.52892646,0.833362013,9.765019883
35:56.9,1.42E+12,-2.11585,-9.501641,0.599653,9.752824547,-1.947965188,-9.52829476,0.823443637,9.765820708
35:56.9,1.42E+12,-2.0640578,-9.493258,0.60040146,9.73358947,-1.957551254,-9.5290372,0.811187127,9.767203207
35:56.9,1.42E+12,-1.9911593,-9.65612,0.7310797,9.886346461,-1.970062236,-9.53342608,0.802391417,9.772798233
35:57.0,1.42E+12,-2.0073256,-9.638307,0.6601273,9.867222808,-1.983866528,-9.53608156,0.791919195,9.776761019
35:57.0,1.42E+12,-2.0781286,-9.64624,0.7381151,9.895118924,-1.997317558,-9.5376473,0.784015631,9.779926934
35:57.0,1.42E+12,-1.8260527,-9.765692,0.57405627,9.951519949,-2.004397834,-9.54056624,0.77726467,9.783470848
35:57.0,1.42E+12,-1.8853295,-9.765991,0.6036946,9.96461212,-2.011660732,-9.543081,0.77041192,9.786653867
35:57.0,1.42E+12,-1.8594333,-9.767189,0.67509615,9.965501893,-2.01459463,-9.54678728,0.7640262,9.790275789
35:57.1,1.42E+12,-1.9119741,-9.618998,0.6322852,9.827540489,-2.01735489,-9.54670348,0.760604317,9.790461527
35:57.1,1.42E+12,-1.8279986,-9.528286,0.8202942,9.73666758,-2.020851618,-9.55056246,0.760026519,9.794824108
35:57.1,1.42E+12,-1.9040406,-9.634714,0.96040285,9.86790039,-2.026931974,-9.55675956,0.761691058,9.802147902
35:57.1,1.42E+12,-1.9020946,-9.432186,0.9648935,9.670321405,-2.030907706,-9.55533752,0.758014704,9.801097879
35:57.1,1.42E+12,-1.7940193,-9.450448,0.93765014,9.664815592,-2.032476444,-9.55696316,0.753095933,9.80243026
35:57.2,1.42E+12,-2.0508852,-9.402846,1.1823912,9.696272065,-2.039161544,-9.55215216,0.757113577,9.799474757
35:57.2,1.42E+12,-2.0766315,-9.270971,1.1852353,9.574345115,-2.04754411,-9.54403304,0.767031951,9.794121226
35:57.2,1.42E+12,-2.1453388,-9.286987,1.1985576,9.606619927,-2.054375904,-9.53768324,0.772432721,9.789925698
35:57.2,1.42E+12,-1.8988014,-9.358239,1.2225078,9.626869131,-2.05143003,-9.53492896,0.774492437,9.786899323
35:57.2,1.42E+12,-1.9820284,-9.471105,1.267564,9.758943846,-2.05233415,-9.53647374,0.779016027,9.789121748
35:57.3,1.42E+12,-1.9853215,-9.416918,1.1975098,9.698137749,-2.054717194,-9.53479126,0.783752179,9.788482
35:57.3,1.42E+12,-1.9755918,-9.358838,1.1561956,9.634708088,-2.056947558,-9.53417754,0.789278685,9.788913733
35:57.3,1.42E+12,-2.0815713,-9.492959,1.090632,9.779503454,-2.060659836,-9.53618636,0.790455239,9.791756643
35:57.3,1.42E+12,-2.0472927,-9.430689,1.0529104,9.707621888,-2.064650538,-9.5342464,0.792251503,9.790851567
35:57.3,1.42E+12,-1.9926562,-9.515263,1.0829979,9.781809298,-2.067129382,-9.5318903,0.796808027,9.78949089
35:57.4,1.42E+12,-1.9827768,-9.45898,1.1838881,9.736801195,-2.068365812,-9.52935756,0.807178462,9.788250554
35:57.4,1.42E+12,-1.9014958,-9.45898,1.1331437,9.71452539,-2.06799159,-9.5269835,0.820084625,9.786932074
35:57.4,1.42E+12,-2.0131636,-9.463171,1.1003618,9.737311187,-2.06528821,-9.52516628,0.830365247,9.785475705
35:57.4,1.42E+12,-1.9965482,-9.345516,1.0750644,9.616685369,-2.06181244,-9.51940026,0.842741511,9.780093498
35:57.4,1.42E+12,-2.0935464,-9.546997,1.0482701,9.829901243,-2.058270804,-9.51279598,0.852450321,9.773682334
35:57.5,1.42E+12,-2.065854,-9.469159,0.95980406,9.739299192,-2.05389091,-9.50832328,0.861458588,9.769038864
35:57.5,1.42E+12,-2.0926483,-9.5246935,1.127156,9.816793969,-2.052678432,-9.50596419,0.872331976,9.76742758
35:57.5,1.42E+12,-2.0818708,-9.626632,1.0382409,9.903745446,-2.051364168,-9.50587439,0.880633711,9.767756239
35:57.5,1.42E+12,-2.1044738,-9.523795,0.8437953,9.78996791,-2.050205578,-9.50600012,0.883516715,9.767853313
35:57.5,1.42E+12,-2.0820205,-9.527687,0.78631485,9.7841668,-2.046050224,-9.50810774,0.882899998,9.76891834
35:57.6,1.42E+12,-1.9577788,-9.5351715,0.86385363,9.772340378,-2.041861932,-9.51013153,0.887031406,9.770325188
35:57.6,1.42E+12,-1.8880239,-9.636211,0.9145981,9.861931168,-2.035925276,-9.51162242,0.893048893,9.771017917
35:57.6,1.42E+12,-1.8459613,-9.588311,1.0078541,9.816264607,-2.027863042,-9.51369412,0.899180141,9.771884603
35:57.7,1.42E+12,-2.189946,-9.615405,0.8316705,9.896643503,-2.026387114,-9.51634062,0.902536161,9.77437535
35:57.7,1.42E+12,-1.9079324,-9.615405,0.68587375,9.826832763,-2.020148088,-9.52028642,0.900165092,9.776720474
35:57.7,1.42E+12,-1.956731,-9.484278,0.86864364,9.722904255,-2.017121382,-9.52071754,0.900796779,9.776563329
35:57.7,1.42E+12,-2.0228934,-9.494456,0.9840537,9.757312854,-2.01422341,-9.51981342,0.900691998,9.775054382
35:57.7,1.42E+12,-2.120191,-9.557475,0.9009764,9.831189995,-2.01371746,-9.51998406,0.90197034,9.775223503
35:57.7,1.42E+12,-1.9220031,-9.519304,0.9129515,9.754215755,-2.009708796,-9.52129832,0.904018082,9.775852545
35:57.7,1.42E+12,-1.979334,-9.670041,0.94528425,9.915695555,-2.005942628,-9.52760022,0.908850034,9.781595573
35:57.8,1.42E+12,-1.9029927,-9.535471,0.9065149,9.765672413,-2.00142203,-9.5292917,0.911334868,9.782523689
35:57.8,1.42E+12,-2.012565,-9.458082,0.8681946,9.708732917,-1.99601827,-9.52620512,0.915403408,9.778656612
35:57.8,1.42E+12,-1.9169137,-9.55014,0.90561676,9.782631234,-1.990195376,-9.52705834,0.922010669,9.778760168
35:57.8,1.42E+12,-2.0122654,-9.538015,0.9595047,9.795079961,-1.988596698,-9.52796246,0.926920459,9.779725328
35:57.8,1.42E+12,-1.8874251,-9.460627,0.8626561,9.685556891,-1.985099968,-9.52590576,0.927459338,9.777058114
35:57.9,1.42E+12,-1.9983444,-9.584419,0.94393706,9.835928278,-1.985354438,-9.52595964,0.930988997,9.777469644
35:57.9,1.42E+12,-1.9339783,-9.623937,0.8903485,9.856630048,-1.98546521,-9.52632488,0.933656449,9.778071449
35:57.9,1.42E+12,-1.9240988,-9.484876,0.77299255,9.708890071,-1.981630186,-9.52598958,0.93712324,9.77719276
35:57.9,1.42E+12,-1.9981947,-9.494756,0.90441924,9.744801061,-1.980312924,-9.52601954,0.943203596,9.777416992
35:58.0,1.42E+12,-1.9597248,-9.434431,0.9156459,9.679226054,-1.979684234,-9.52158576,0.94689492,9.773274583
35:58.0,1.42E+12,-1.9775376,-9.538614,0.9485774,9.787523235,-1.979088474,-9.5195919,0.952663922,9.771680592
35:58.0,1.42E+12,-2.117796,-9.532178,1.0261161,9.818370108,-1.979881822,-9.51731066,0.958423942,9.770145616
35:58.0,1.42E+12,-1.9022442,-9.540112,1.0386901,9.783207403,-1.981405652,-9.51279906,0.967716619,9.766779365
35:58.0,1.42E+12,-1.9353255,-9.412726,1.0039623,9.661927129,-1.982405572,-9.50573376,0.975721973,9.760725665
35:58.0,1.42E+12,-2.0778291,-9.286688,0.99078965,9.567738077,-1.986773488,-9.49612374,0.982035843,9.752770389
35:58.1,1.42E+12,-1.9080821,-9.563462,0.9900412,9.802079591,-1.986695648,-9.49501302,0.989190963,9.752261171
35:58.1,1.42E+12,-1.832639,-9.61765,1.0943742,9.851670524,-1.986788456,-9.4968003,0.994672563,9.75456123
35:58.1,1.42E+12,-1.9202069,-9.544303,0.9903406,9.785790147,-1.987111782,-9.49499208,0.995271318,9.752919025
35:58.1,1.42E+12,-2.019301,-9.499845,0.99752563,9.763180267,-1.98945591,-9.49634526,0.99592396,9.754776202
35:58.1,1.42E+12,-1.9616706,-9.518406,0.8798703,9.758195328,-1.992808936,-9.49770442,0.994768363,9.756643797
35:58.2,1.42E+12,-2.003883,-9.540561,0.9313632,9.793124562,-1.991868892,-9.50045872,0.989747803,9.758580847
35:58.2,1.42E+12,-2.0679498,-9.291927,0.855471,9.557622842,-1.991695258,-9.50087784,0.983152517,9.758246401
35:58.2,1.42E+12,-2.0448976,-9.633068,0.8560698,9.884860181,-1.989686434,-9.50779946,0.976302761,9.763811206
35:58.2,1.42E+12,-1.9601738,-9.46347,0.99872315,9.715811531,-1.990913882,-9.50990408,0.971827068,9.765590054
35:58.2,1.42E+12,-1.9137703,-9.426048,1.0114467,9.671397111,-1.98954872,-9.50900294,0.966704722,9.76383912
35:58.3,1.42E+12,-1.9107765,-9.421408,0.94019485,9.659087011,-1.98805782,-9.50909274,0.961558423,9.763058105
35:58.3,1.42E+12,-1.9787352,-9.51197,0.91205335,9.758319916,-1.988120688,-9.51215538,0.956675578,9.765530341
35:58.3,1.42E+12,-1.9881656,-9.505982,0.83825684,9.747777735,-1.986252574,-9.51241584,0.951628075,9.764895827
35:58.3,1.42E+12,-1.877396,-9.592053,0.96938413,9.822006011,-1.98285464,-9.51564312,0.94995755,9.767183509
35:58.3,1.42E+12,-2.0422032,-9.469608,0.9559122,9.734363755,-1.98384558,-9.51473002,0.947415836,9.766234599
35:58.4,1.42E+12,-1.9922072,-9.536669,0.9488768,9.78863179,-1.984034188,-9.5162838,0.94271561,9.76727121
35:58.4,1.42E+12,-2.0803738,-9.396859,0.9824071,9.674401166,-1.987611748,-9.51504138,0.939700878,9.766468726
35:58.4,1.42E+12,-2.0910017,-9.494456,0.9635463,9.769616385,-1.98916851,-9.51566708,0.936964568,9.76711483
35:58.4,1.42E+12,-1.9688557,-9.635463,0.8586145,9.871968337,-1.98861466,-9.52146602,0.93263557,9.772220489
35:58.4,1.42E+12,-1.9598744,-9.523496,0.88031936,9.762840053,-1.98594122,-9.520996,0.929276555,9.770879265
35:58.5,1.42E+12,-2.1061203,-9.608668,0.9602531,9.883538307,-1.986746546,-9.52378618,0.929285536,9.773764048
35:58.5,1.42E+12,-2.0378623,-9.566157,0.9048683,9.82257752,-1.985650826,-9.52461545,0.924839782,9.773879719
35:58.5,1.42E+12,-1.9422112,-9.517209,0.9042696,9.755365447,-1.982857634,-9.52242699,0.922160356,9.770912119
35:58.5,1.42E+12,-1.8300943,-9.466614,0.8012837,9.675126942,-1.977370044,-9.52128337,0.921310124,9.768615299
35:58.5,1.42E+12,-2.07259,-9.579479,0.90531737,9.842847492,-1.977181434,-9.52231921,0.923690174,9.769788913
35:58.6,1.42E+12,-2.0787272,-9.546398,0.82777864,9.805102703,-1.979600402,-9.52254374,0.922968674,9.77044416
35:58.6,1.42E+12,-1.9946022,-9.330098,0.91504717,9.584700201,-1.981731968,-9.51642148,0.922977656,9.76489954
35:58.6,1.42E+12,-1.9279907,-9.473649,0.92582476,9.712071097,-1.983372556,-9.51412824,0.921337069,9.76281567
35:58.7,1.42E+12,-1.9484981,-9.450149,0.9054671,9.691327651,-1.978543598,-9.51082312,0.922813001,9.758709353
35:58.7,1.42E+12,-2.0537293,-9.595945,0.843945,9.849477532,-1.981459536,-9.51043392,0.925974426,9.759162249
35:58.7,1.42E+12,-1.9401155,-9.5070305,0.86220706,9.741205166,-1.981127226,-9.51088897,0.925845694,9.759528267
35:58.7,1.42E+12,-1.945654,-9.477691,0.88690567,9.715904376,-1.979582438,-9.51055367,0.923902734,9.758700097
35:58.7,1.42E+12,-1.9761904,-9.536369,1.0696756,9.797543983,-1.976702426,-9.51013155,0.927276718,9.758027177
35:58.7,1.42E+12,-2.009571,-9.440718,0.9732761,9.7011751,-1.978453784,-9.50855983,0.92848321,9.756966364
35:58.7,1.42E+12,-1.9863694,-9.517958,1.0249187,9.776893485,-1.978594492,-9.50551817,0.930075899,9.754190323
35:58.8,1.42E+12,-2.0046313,-9.469608,0.9794133,9.728888566,-1.980627264,-9.50420091,0.931533867,9.753454646
35:58.8,1.42E+12,-1.8862276,-9.608519,0.92747134,9.835735611,-1.978100516,-9.50720965,0.932719402,9.755994699
35:58.8,1.42E+12,-2.065854,-9.515412,1.0343491,9.791868889,-1.981079322,-9.50651509,0.935294048,9.756179453
35:58.8,1.42E+12,-2.064956,-9.55538,0.95860654,9.822843617,-1.982133134,-9.50686239,0.935276085,9.756734726
35:58.8,1.42E+12,-2.0124152,-9.605525,0.7854167,9.845445894,-1.984632936,-9.50976035,0.933731297,9.759932506
35:58.9,1.42E+12,-1.9995419,-9.527388,0.69889665,9.760007502,-1.984656886,-9.50861973,0.928830489,9.75841409
35:58.9,1.42E+12,-2.0420535,-9.571096,0.72778654,9.813538321,-1.98681839,-9.50756291,0.92557925,9.757552256
35:59.0,1.42E+12,-2.0004401,-9.614507,0.73497164,9.847877373,-1.988345216,-9.51015553,0.924818832,9.760332002
35:59.0,1.42E+12,-1.8739531,-9.645941,0.67210233,9.849243602,-1.985860384,-9.51317923,0.920172493,9.762420853
35:59.0,1.42E+12,-2.0146606,-9.6742325,0.7702982,9.911760243,-1.9869591,-9.51797526,0.917265539,9.767071536
35:59.0,1.42E+12,-2.0863614,-9.655821,0.938698,9.923151566,-1.989135576,-9.5203194,0.917067951,9.769784103
35:59.0,1.42E+12,-2.1237836,-9.494905,0.94109297,9.774933949,-1.989255328,-9.51957394,0.915367489,9.76891538
35:59.0,1.42E+12,-2.0239413,-9.55014,0.9169931,9.805222524,-1.99168927,-9.5197745,0.912933549,9.769355682
35:59.0,1.42E+12,-2.0883074,-9.4877205,0.9190887,9.758206399,-1.994748908,-9.52127439,0.911236077,9.771281268
35:59.0,1.42E+12,-2.1350102,-9.5070305,1.0174342,9.796788751,-1.99589253,-9.52568124,0.911768968,9.775862281
35:59.1,1.42E+12,-2.1683908,-9.573941,1.0120454,9.868459901,-2.001098704,-9.52589082,0.912209052,9.777189887
35:59.1,1.42E+12,-2.2960753,-9.548943,0.88690567,9.861078839,-2.01036743,-9.52451668,0.908059681,9.777378054
35:59.1,1.42E+12,-2.1924906,-9.514365,0.8051756,9.796859912,-2.015813104,-9.52391792,0.904356381,9.777599449
35:59.1,1.42E+12,-2.1685405,-9.486972,0.87208647,9.770657114,-2.018797894,-9.52366046,0.901847598,9.777748986
35:59.1,1.42E+12,-2.253414,-9.56496,0.89394104,9.867394035,-2.024632762,-9.52459154,0.902129013,9.77993296
35:59.2,1.42E+12,-2.3363416,-9.553284,0.73093003,9.861946358,-2.031281934,-9.524846,0.898120349,9.781309396
35:59.2,1.42E+12,-2.2402413,-9.416918,0.7738907,9.710609276,-2.034727764,-9.52734582,0.896488743,9.784369125
35:59.2,1.42E+12,-2.3026617,-9.415121,0.7084767,9.718471772,-2.039883046,-9.52298688,0.893536881,9.781041356
35:59.2,1.42E+12,-2.4327412,-9.451345,0.7084767,9.785095364,-2.049334394,-9.52274438,0.887731952,9.782427033
35:59.3,1.42E+12,-2.311643,-9.39626,0.97776675,9.725709391,-2.057291848,-9.52214862,0.887058353,9.783513279
35:59.3,1.42E+12,-2.2772145,-9.385483,0.86894304,9.696806641,-2.064620608,-9.52143012,0.885633317,9.784267671
35:59.3,1.42E+12,-2.2580543,-9.530082,0.73093003,9.821177672,-2.07020699,-9.52179236,0.882010851,9.785524826
35:59.3,1.42E+12,-2.1088147,-9.53128,0.70802766,9.78742566,-2.072619972,-9.52229832,0.879406267,9.786317785
35:59.3,1.42E+12,-1.9893631,-9.572594,0.7940987,9.809317722,-2.074859314,-9.52190914,0.875900559,9.786064019
35:59.3,1.42E+12,-1.8425184,-9.652827,0.809816,9.860413029,-2.070865618,-9.52557352,0.872978635,9.788585005
35:59.4,1.42E+12,-1.5655943,-9.604477,0.77269316,9.761870655,-2.06233336,-9.52692968,0.869454962,9.788049782
35:59.4,1.42E+12,-1.64463,-9.515562,1.1222163,9.72163039,-2.053618484,-9.52930374,0.872251146,9.788994366
35:59.4,1.42E+12,-1.8709593,-9.366472,1.3807287,9.650787438,-2.049217636,-9.52674406,0.880594794,9.786617787
35:59.4,1.42E+12,-1.9978954,-9.298813,1.1642789,9.582017251,-2.04979843,-9.52001106,0.886708082,9.780818766
35:59.4,1.42E+12,-2.1257296,-9.314381,0.950224,9.60100752,-2.053115534,-9.51582876,0.888106175,9.777582115
35:59.5,1.42E+12,-2.1487815,-9.577384,0.6969507,9.84018732,-2.053968758,-9.51520308,0.882840127,9.776715095
35:59.5,1.42E+12,-2.220632,-9.567504,0.7047345,9.847080277,-2.057624152,-9.51523002,0.878837451,9.77720515
35:59.5,1.42E+12,-2.110611,-9.693842,0.45894563,9.931559928,-2.060992148,-9.51876268,0.869930971,9.78072904
35:59.5,1.42E+12,-2.206262,-9.5969925,0.4046086,9.855636214,-2.068515502,-9.52137025,0.861997469,9.784339225
35:59.5,1.42E+12,-2.1683908,-9.651031,0.58588165,9.908964393,-2.070431518,-9.52280129,0.855608755,9.785661563
35:59.6,1.42E+12,-2.137555,-9.645791,0.49666718,9.89227495,-2.071608074,-9.52478915,0.848986526,9.787405008
35:59.6,1.42E+12,-2.105372,-9.767039,0.48229706,10.00301217,-2.07382347,-9.53352797,0.840331523,9.795771248
35:59.6,1.42E+12,-2.084116,-9.687105,0.52001864,9.922396997,-2.076945976,-9.53779709,0.832215401,9.799977766
35:59.6,1.42E+12,-2.1987777,-9.542057,0.7197034,9.818525763,-2.081951568,-9.53963525,0.828500127,9.802521728
35:59.6,1.42E+12,-2.1483326,-9.339378,0.7934999,9.61607802,-2.083843634,-9.53450391,0.827491225,9.797853738
35:59.7,1.42E+12,-2.1989274,-9.483978,0.77523786,9.766376716,-2.089019872,-9.53404286,0.825751841,9.798357169
35:59.7,1.42E+12,-2.088008,-9.507479,0.9267229,9.778074947,-2.091866952,-9.53463862,0.826548186,9.79960058
35:59.7,1.42E+12,-2.2433848,-9.421108,1.083447,9.744942725,-2.09721084,-9.5323334,0.826823614,9.798548555
35:59.7,1.42E+12,-2.1270766,-9.588611,1.1820918,9.892585951,-2.099560952,-9.53529126,0.830999928,9.802376772
35:59.7,1.42E+12,-2.0926483,-9.466165,0.954565,9.741593866,-2.10168653,-9.5342554,0.829592854,9.80167078
35:59.8,1.42E+12,-2.1059706,-9.4049425,1.0485694,9.694717808,-2.103713316,-9.53296209,0.830975976,9.800987365
35:59.8,1.42E+12,-1.9064355,-9.386231,1.1889775,9.651398665,-2.104117474,-9.52851633,0.836206099,9.797300626
35:59.8,1.42E+12,-1.9104772,-9.368867,1.3997393,9.66358433,-2.101009938,-9.52558543,0.843513903,9.794734934
35:59.8,1.42E+12,-2.0574715,-9.381291,1.321003,9.694681982,-2.100860248,-9.52210365,0.850761832,9.792171702
35:59.8,1.42E+12,-1.9324814,-9.384135,1.2937596,9.668003308,-2.099261572,-9.51767585,0.86092869,9.78862285
35:59.9,1.42E+12,-1.9049387,-9.312285,1.2045451,9.58114671,-2.097369508,-9.51337379,0.871041659,9.785045634
35:59.9,1.42E+12,-2.0329225,-9.336385,1.0855426,9.616613827,-2.097186888,-9.50867957,0.87819678,9.781107144
35:59.9,1.42E+12,-2.0314257,-9.346115,1.1690689,9.635521681,-2.0978066,-9.50331173,0.886878725,9.77686003
36:00.0,1.42E+12,-1.909579,-9.283395,1.2798386,9.563780713,-2.098519118,-9.49606081,0.899033451,9.771150773
36:00.0,1.42E+12,-1.8669177,-9.396859,1.0532098,9.63823592,-2.09556426,-9.49051334,0.904691683,9.765680286
36:00.0,1.42E+12,-1.8615289,-9.498348,0.95321774,9.725869043,-2.09106761,-9.48736388,0.904982078,9.761734636
36:00.0,1.42E+12,-1.8844314,-9.441616,0.8677455,9.66685971,-2.086280566,-9.4862981,0.903515128,9.759573151
36:00.0,1.42E+12,-2.1022284,-9.677675,0.7231462,9.929738067,-2.087846308,-9.4888488,0.89963819,9.762063462
36:00.0,1.42E+12,-2.0547771,-9.654324,0.5334906,9.884973093,-2.087175702,-9.49218087,0.891926228,9.764598796
36:00.0,1.42E+12,-2.1650977,-9.827514,0.5110373,10.07615197,-2.087777452,-9.49859054,0.88179829,9.77018606
36:00.1,1.42E+12,-2.185605,-9.654773,0.74485105,9.927049611,-2.088121736,-9.50020718,0.876454403,9.771357854
36:00.1,1.42E+12,-2.0116668,-9.74758,0.7658075,9.982413551,-2.082433566,-9.50417992,0.87403244,9.773784549
36:00.1,1.42E+12,-1.843267,-9.59325,0.7189549,9.795150583,-2.075449094,-9.50575762,0.872308026,9.773750362
36:00.1,1.42E+12,-1.8217118,-9.602232,0.8132588,9.807287247,-2.06851252,-9.50806282,0.871131472,9.774482965
36:00.1,1.42E+12,-1.8329384,-9.580527,0.8120613,9.788033732,-2.060103008,-9.50837416,0.869493878,9.772895759
36:00.2,1.42E+12,-1.877396,-9.618399,1.0087523,9.851690021,-2.050924096,-9.50967646,0.875050323,9.772690632
36:00.2,1.42E+12,-1.8805394,-9.5600195,0.9279204,9.787310026,-2.043730058,-9.51253849,0.878130917,9.774224647
36:00.2,1.42E+12,-1.6968713,-9.50224,0.97597045,9.701775896,-2.03161425,-9.51428087,0.883480792,9.773890729
36:00.2,1.42E+12,-1.7812958,-9.533824,0.8310718,9.734346158,-2.018585342,-9.51593045,0.885932694,9.772875745
36:00.3,1.42E+12,-1.7998571,-9.507628,0.9116043,9.719336303,-2.008349624,-9.51815781,0.884609445,9.772748283
36:00.3,1.42E+12,-1.9224522,-9.57903,0.9196875,9.813228995,-2.001254378,-9.52202875,0.885624334,9.77507673
36:00.3,1.42E+12,-1.9836749,-9.644444,1.023272,9.89936118,-1.99576679,-9.52431599,0.891471174,9.776640401
36:00.3,1.42E+12,-1.8703606,-9.682316,0.9313632,9.905197086,-1.990997708,-9.52733671,0.895937884,9.778995829
36:00.3,1.42E+12,-1.8633252,-9.610615,0.9698332,9.837503642,-1.98847695,-9.52809713,0.899452574,9.779559548
36:00.3,1.42E+12,-1.8946102,-9.627829,0.9764195,9.860934748,-1.989518786,-9.52759717,0.902784644,9.779569982
36:00.4,1.42E+12,-2.0239413,-9.52634,0.87627774,9.77831043,-1.998685726,-9.52603443,0.904856336,9.779898777
36:00.4,1.42E+12,-2.0478914,-9.624536,0.9273216,9.883596398,-2.006750954,-9.52821391,0.900958442,9.783138098
36:00.4,1.42E+12,-1.9151175,-9.447155,0.95216995,9.686229413,-2.007634118,-9.52982757,0.892387267,9.783846937
36:00.4,1.42E+12,-1.8938617,-9.608818,0.91010743,9.835872662,-2.005553444,-9.53602767,0.887303838,9.788924045
36:00.4,1.42E+12,-1.974993,-9.53083,1.0466236,9.789419738,-2.002538712,-9.54035665,0.88923183,9.79269229
36:00.5,1.42E+12,-2.13037,-9.47799,1.0909314,9.775525669,-2.002170482,-9.53836877,0.897111444,9.791399057
36:00.5,1.42E+12,-1.9981947,-9.546548,0.9147478,9.796230107,-1.997721736,-9.53794965,0.90131171,9.790382053
36:00.5,1.42E+12,-1.9666104,-9.402397,1.0078541,9.658591807,-1.994841724,-9.53212075,0.912289879,9.784922691
36:00.5,1.42E+12,-1.8946102,-9.413325,1.0265652,9.656814769,-1.988608688,-9.5284474,0.924729011,9.780946262
36:00.5,1.42E+12,-1.8875748,-9.461974,1.151256,9.716855509,-1.982992368,-9.52466626,0.936036498,9.777104084
36:00.6,1.42E+12,-1.943259,-9.607022,1.2331357,9.878853724,-1.979106448,-9.52389088,0.950765868,9.77683566
36:00.6,1.42E+12,-1.95718,-9.349558,0.9595047,9.600283205,-1.976142608,-9.51554126,0.960310021,9.76878108
36:00.6,1.42E+12,-1.9535875,-9.499994,0.9045689,9.740874448,-1.973532038,-9.51179904,0.968001026,9.765150629
36:00.6,1.42E+12,-1.898951,-9.402996,0.9169931,9.636556699,-1.967535504,-9.50901782,0.97194682,9.761511248
36:00.6,1.42E+12,-1.8422191,-9.491612,0.8779243,9.708512793,-1.961413234,-9.5120625,0.973635308,9.763359944
36:00.7,1.42E+12,-2.0492387,-9.663605,0.8904982,9.918549687,-1.95841946,-9.51565504,0.975940515,9.766403403
36:00.7,1.42E+12,-2.016756,-9.5600195,0.91759187,9.813422056,-1.95699442,-9.51670585,0.975757895,9.767110345
36:00.7,1.42E+12,-2.0431013,-9.562116,1.0124946,9.830232481,-1.95298875,-9.51952601,0.974338847,9.76881614
36:00.7,1.42E+12,-1.95718,-9.491612,1.2085867,9.766367478,-1.949590818,-9.51758603,0.974868745,9.766291771
36:00.7,1.42E+12,-1.7381854,-9.302256,0.9906399,9.514968344,-1.94250156,-9.51430785,0.975590243,9.76175926
36:00.8,1.42E+12,-1.5786172,-9.317973,1.0755135,9.511749701,-1.931954492,-9.51256846,0.976129125,9.758099898
36:00.8,1.42E+12,-1.9362236,-9.561966,0.8952882,9.797024884,-1.932550254,-9.51608316,0.970255339,9.761012423
36:00.8,1.42E+12,-2.054328,-9.508677,0.9592053,9.775237932,-1.93542727,-9.51887936,0.961444659,9.763245495
36:00.8,1.42E+12,-2.2507195,-9.321566,0.69994444,9.614949463,-1.93929223,-9.51768486,0.949023487,9.761650844
36:00.8,1.42E+12,-2.0794756,-9.519005,0.64036834,9.764514661,-1.942232114,-9.52038226,0.935955662,9.763581071
36:00.9,1.42E+12,-1.9787352,-9.364227,0.9139993,9.614548092,-1.943708044,-9.5214211,0.930144746,9.764249099
36:00.9,1.42E+12,-1.750909,-9.689351,0.9241782,9.889555626,-1.938067774,-9.52848042,0.926917458,9.769707935
36:00.9,1.42E+12,-1.7697698,-9.701177,0.8125104,9.894700272,-1.932834656,-9.53558166,0.919786288,9.774891507
36:00.9,1.42E+12,-1.6706758,-9.485325,0.32557297,9.636832765,-1.928056592,-9.53962026,0.900700976,9.776352548
36:00.9,1.42E+12,-1.3554313,-9.745784,0.38799316,9.847235068,-1.917826864,-9.54659876,0.887396643,9.780532531
36:01.0,1.42E+12,-1.9233503,-9.825268,0.5351372,10.02604306,-1.919063292,-9.55313716,0.879035032,9.786536011
36:01.0,1.42E+12,-2.3752606,-9.600137,1.1231145,9.953184391,-1.928879876,-9.55630758,0.884142412,9.792262505
36:01.0,1.42E+12,-2.4748037,-9.481433,0.8330177,9.834436617,-1.936331382,-9.55238274,0.886339842,9.790356476
36:01.0,1.42E+12,-2.169738,-9.577234,0.8764275,9.858970496,-1.9386306,-9.55084094,0.89319858,9.789836424
36:01.0,1.42E+12,-1.9984941,-9.617051,0.74604857,9.850798804,-1.935298528,-9.54663168,0.897898805,9.785329361
36:01.1,1.42E+12,-1.7769548,-9.638756,1.1835887,9.872389164,-1.927125524,-9.54631134,0.906673558,9.784236152
36:01.1,1.42E+12,-1.762435,-9.639355,0.91639435,9.841906347,-1.922140888,-9.54414684,0.909685295,9.781426008
36:01.1,1.42E+12,-1.6573535,-9.445508,0.9659413,9.638334119,-1.918422618,-9.541192,0.914625023,9.778289678
36:01.1,1.42E+12,-2.1242325,-9.596544,0.9514215,9.874777128,-1.924473032,-9.54107824,0.917388277,9.779639476
36:01.1,1.42E+12,-2.38993,-9.499994,1.2684622,9.87778557,-1.935612864,-9.53946758,0.926516295,9.781434513
36:01.2,1.42E+12,-2.3291564,-9.504934,1.0205777,9.839223482,-1.944648072,-9.53719828,0.926752803,9.781185182
36:01.2,1.42E+12,-2.1709356,-9.566307,0.90561676,9.851260463,-1.950455996,-9.53732403,0.926306731,9.782464191
36:01.2,1.42E+12,-1.926943,-9.455836,0.4840933,9.662312876,-1.95505743,-9.53639595,0.916469188,9.78167493
36:01.2,1.42E+12,-2.3379881,-9.578731,1.07237,9.918077099,-1.966191276,-9.53729409,0.921295152,9.785349549
36:01.3,1.42E+12,-2.056723,-9.385183,1.1776012,9.679799276,-1.971328594,-9.53484519,0.92661509,9.784558808
36:01.3,1.42E+12,-1.8178198,-9.614956,0.925226,9.828931318,-1.969235946,-9.53556371,0.92672586,9.784872855
36:01.3,1.42E+12,-1.9544857,-9.238937,0.72539157,9.471228229,-1.968652162,-9.52745357,0.920768251,9.776310196
36:01.3,1.42E+12,-1.8517991,-9.406139,0.56911653,9.603567276,-1.968280932,-9.52193003,0.913523318,9.7702776
36:01.3,1.42E+12,-1.121917,-9.353001,0.12858261,9.42092665,-1.953452768,-9.51677775,0.896698306,9.76194606
36:01.3,1.42E+12,-2.1725821,-10.238858,0.91519684,10.50675551,-1.959012206,-9.52899833,0.895473853,9.774862475
36:01.4,1.42E+12,-2.493365,-9.708811,1.2261003,10.09857426,-1.96840068,-9.53264775,0.902470304,9.781267752
36:01.4,1.42E+12,-1.5236815,-9.733359,0.43484575,9.861489419,-1.957916482,-9.53482421,0.892620787,9.780825612
36:01.4,1.42E+12,-1.6940273,-9.409733,0.6879694,9.585724048,-1.953494678,-9.53407577,0.887336776,9.778815505
36:01.4,1.42E+12,-2.0755837,-9.66091,0.7589218,9.910458719,-1.957129118,-9.53511761,0.884313063,9.780307226
36:01.4,1.42E+12,-2.2829027,-9.604029,0.76161623,9.900963441,-1.963287312,-9.53658159,0.878612916,9.7825381
36:01.5,1.42E+12,-1.9868184,-9.5335245,0.56178176,9.754544351,-1.96041628,-9.53769228,0.868029923,9.782118474
36:01.5,1.42E+12,-1.5423926,-9.7862,0.7855664,9.938098407,-1.951300238,-9.54248532,0.865446295,9.78495584
36:01.5,1.42E+12,-2.0157082,-9.469608,0.95860654,9.729104878,-1.952282194,-9.54382954,0.864461344,9.786366101
36:01.6,1.42E+12,-2.0176542,-9.485025,0.72613996,9.724397512,-1.954743074,-9.54526354,0.858452839,9.787717756
36:01.6,1.42E+12,-1.8025516,-9.565558,0.7319778,9.761397626,-1.95304261,-9.54733522,0.850067275,9.788608598
36:01.6,1.42E+12,-1.7812958,-9.461525,0.6264473,9.648103766,-1.949803346,-9.54442528,0.837933507,9.783993599
36:01.6,1.42E+12,-2.0270846,-9.339528,0.6116281,9.576530905,-1.951201438,-9.54422468,0.830975975,9.783518553
36:01.6,1.42E+12,-2.337539,-9.399553,0.6348299,9.706631454,-1.958880468,-9.54221586,0.825581195,9.782833693
36:01.6,1.42E+12,-2.203867,-8.980275,0.7418573,9.27646059,-1.964978788,-9.53376144,0.822078479,9.775631771
36:01.6,1.42E+12,-2.0104692,-8.983418,0.89903045,9.249434638,-1.96834379,-9.52359756,0.822500602,9.766450208
36:01.7,1.42E+12,-2.3611898,-9.81973,1.2340338,10.17473115,-1.974582812,-9.52672006,0.829371314,9.771573837
36:01.7,1.42E+12,-2.2424867,-10.314751,1.7967137,10.70752142,-1.979097426,-9.54181469,0.846953751,9.789455825
36:01.7,1.42E+12,-1.8166223,-9.816287,1.5438895,10.10164352,-1.974567846,-9.54689811,0.857581649,9.794884045
36:01.7,1.42E+12,-1.3976436,-10.11776,0.9696835,10.25976419,-1.963377118,-9.55942107,0.852803585,9.80475198
36:01.7,1.42E+12,-1.1551479,-10.398576,0.7506889,10.48943675,-1.951716368,-9.58134747,0.848004565,9.824241348
36:01.8,1.42E+12,-1.8766475,-9.895922,0.18276992,10.07395071,-1.957676974,-9.59290645,0.830149693,9.835485368
36:01.8,1.42E+12,-1.0735675,-9.028924,-0.8457413,9.131773876,-1.940423852,-9.58224561,0.795329103,9.822180348
36:01.8,1.42E+12,-1.129102,-8.825198,-0.2415976,8.9004135,-1.921919332,-9.56857603,0.771313045,9.804683859
36:01.8,1.42E+12,-2.6897566,-8.959619,1.940864,9.553874411,-1.930700074,-9.56133709,0.796131436,9.803462358
36:01.9,1.42E+12,-3.0590386,-9.518855,1.3407619,10.08781246,-1.950291334,-9.56133409,0.810139307,9.809928314
36:01.9,1.42E+12,-2.1703367,-9.891131,-0.07065307,10.12668878,-1.954123364,-9.57187217,0.79044626,9.820171128
36:01.9,1.42E+12,-1.6175363,-9.837992,0.32557297,9.975395132,-1.95145591,-9.57484499,0.778474155,9.821887918
36:01.9,1.42E+12,-1.7372873,-9.610615,1.2888199,9.851047892,-1.95080626,-9.57303375,0.788000345,9.82101487
36:01.9,1.42E+12,-1.7359401,-9.369166,1.7669257,9.69106733,-1.952111546,-9.57071057,0.8168274,9.822099562
36:01.9,1.42E+12,-1.7151333,-9.350156,1.5852035,9.637425465,-1.959305586,-9.56279801,0.840771607,9.81790337
36:02.0,1.42E+12,-1.8479073,-9.479487,0.97597045,9.7071084,-1.957796726,-9.55588239,0.849588272,9.811524676
36:02.0,1.42E+12,-2.280807,-9.339977,0.9497749,9.661227836,-1.955907654,-9.55067919,0.84612148,9.805685545
36:02.0,1.42E+12,-2.4629781,-9.0004835,0.8705896,9.371920327,-1.955671142,-9.5410602,0.846872918,9.796435219
36:02.0,1.42E+12,-2.4364834,-9.170979,0.8412506,9.52633244,-1.96100605,-9.5329351,0.84616938,9.789782458
36:02.0,1.42E+12,-2.021247,-9.326356,1.1576926,9.612835577,-1.961461108,-9.5271212,0.85440226,9.785023194
36:02.1,1.42E+12,-1.6634908,-9.48278,1.1796968,9.69958776,-1.959191828,-9.52400168,0.854324422,9.781567166
36:02.1,1.42E+12,-1.8181192,-9.581276,0.8412506,9.788468204,-1.960305512,-9.5228401,0.852821547,9.780498403
36:02.1,1.42E+12,-1.8113832,-9.66061,0.66162413,9.851205061,-1.963386106,-9.52714214,0.846735204,9.784755822
36:02.1,1.42E+12,-1.7809964,-9.691446,0.5828879,9.870959024,-1.956521384,-9.52904018,0.839364532,9.78467946
36:02.1,1.42E+12,-2.0001407,-9.519903,0.6950047,9.752545692,-1.948725598,-9.52943836,0.827895382,9.782174662
36:02.2,1.42E+12,-1.9332298,-9.5721445,0.7433542,9.793666487,-1.940807066,-9.53078257,0.822350912,9.781263522
36:02.2,1.42E+12,-1.9490968,-9.680968,0.8523276,9.911941389,-1.93637029,-9.53307579,0.821285129,9.782477141
36:02.2,1.42E+12,-2.099983,-9.627679,0.88346285,9.893565492,-1.93983109,-9.53651265,0.82927252,9.787102193
36:02.2,1.42E+12,-2.0704944,-9.589957,0.7417076,9.838920291,-1.934481216,-9.53673717,0.822659272,9.785519057
36:02.2,1.42E+12,-1.9471508,-9.618848,0.75338334,9.84282579,-1.932289772,-9.54141047,0.814174915,9.788779587
36:02.3,1.42E+12,-1.9919078,-9.554631,0.9716295,9.808299247,-1.935771532,-9.54020397,0.815102985,9.788366946
36:02.3,1.42E+12,-2.0706441,-9.517359,1.0512639,9.796573131,-1.9380947,-9.54577241,0.821620431,9.794873844
36:02.3,1.42E+12,-2.1502786,-9.421408,1.108894,9.72708963,-1.94406429,-9.54607779,0.832415981,9.797344291
36:02.3,1.42E+12,-1.9516416,-9.452543,1.2103829,9.727512573,-1.960658782,-9.54806863,0.854051986,9.803476009
36:02.3,1.42E+12,-1.8821859,-9.437275,1.1250604,9.688681236,-1.954850858,-9.53203697,0.858249258,9.787114524
36:02.4,1.42E+12,-2.284699,-9.2239685,1.0726694,9.563057254,-1.950677538,-9.52234012,0.85518064,9.776404184
36:02.4,1.42E+12,-3.3970358,-9.235345,0.85277665,9.877179633,-1.988144624,-9.51237984,0.863539258,9.776717988
36:02.4,1.42E+12,-3.1798375,-9.286688,0.29847932,9.82054125,-2.017860828,-9.50991894,0.855749456,9.781414332
36:02.4,1.42E+12,-1.9962487,-9.436227,0.021255799,9.645094125,-2.016274128,-9.50542528,0.840996136,9.77610704
36:02.4,1.42E+12,-0.61028093,-9.823173,0.48618898,9.854113371,-1.982821693,-9.50980816,0.835487591,9.775170039
36:02.5,1.42E+12,-0.950224,-9.6775255,0.6306386,9.744492316,-1.962089805,-9.51268818,0.836864728,9.774968998
36:02.5,1.42E+12,-1.8155745,-9.633966,1.2692107,9.885368352,-1.967553443,-9.5096435,0.846537614,9.773914397
36:02.6,1.42E+12,-1.6461269,-9.985286,1.681154,10.25874988,-1.960161817,-9.51995706,0.860988563,9.784507297
36:02.6,1.42E+12,-1.563349,-9.75237,1.541195,9.99640249,-1.951075713,-9.52530396,0.877289664,9.789947396
36:02.6,1.42E+12,-1.6253201,-9.184002,0.9833052,9.378403237,-1.947531083,-9.51767284,0.882316212,9.782287509
36:02.6,1.42E+12,-1.7342935,-9.245973,0.34682876,9.413611467,-1.946591037,-9.5133618,0.876723841,9.777597663
36:02.6,1.42E+12,-2.018253,-9.449999,0.25462052,9.666470808,-1.946414405,-9.51557122,0.869583689,9.779396461
36:02.6,1.42E+12,-2.248175,-9.6163025,0.9222322,9.918572318,-1.944627125,-9.51990621,0.875331735,9.783635278
36:02.6,1.42E+12,-2.1477337,-9.729018,1.0455757,10.01797284,-1.943504459,-9.53488107,0.881406103,9.798465523
36:02.6,1.42E+12,-2.2505698,-9.742191,0.816552,10.03205398,-1.948306471,-9.55005653,0.879756534,9.81411791
36:02.7,1.42E+12,-2.264042,-9.556427,0.6984476,9.84576113,-1.946363515,-9.54479047,0.86904481,9.807538509
36:02.7,1.42E+12,-2.0172052,-9.483379,0.8687933,9.734392425,-1.941857885,-9.52816303,0.850486402,9.78807593
36:02.7,1.42E+12,-1.8678159,-9.557924,1.0006691,9.789994181,-1.942881757,-9.52299577,0.839621994,9.781842943
36:02.7,1.42E+12,-1.8176701,-9.479487,1.0568024,9.709862496,-1.951282287,-9.51023031,0.841364372,9.770844909
36:02.7,1.42E+12,-1.7375866,-9.434431,0.9012758,9.635351242,-1.962931061,-9.49094741,0.84437611,9.753763199
36:02.8,1.42E+12,-1.540746,-9.549841,0.7623646,9.703327323,-1.956213031,-9.48402579,0.855968004,9.746350731
36:02.8,1.42E+12,-1.8338366,-9.53577,0.90022796,9.752142152,-1.971418413,-9.49416271,0.890887389,9.758758097
36:02.8,1.42E+12,-1.9652632,-9.429192,0.9111552,9.674819121,-1.988141637,-9.50624259,0.913942445,9.774246209
36:02.9,1.42E+12,-2.1389022,-9.46377,0.90696394,9.744764175,-1.977124549,-9.51632561,0.893264444,9.778064004
36:02.9,1.42E+12,-2.1713846,-9.535022,0.832419,9.814503401,-1.959371469,-9.51664895,0.883097586,9.772597823
36:02.9,1.42E+12,-2.043251,-9.599837,0.90052736,9.85609936,-1.956829755,-9.51082307,0.902521195,9.767186035
36:02.9,1.42E+12,-2.0790267,-9.651629,0.74036044,9.900728658,-1.966059563,-9.50709581,0.910816944,9.765692705
36:02.9,1.42E+12,-2.1204903,-9.520951,0.8509804,9.791279523,-1.973723623,-9.50530253,0.902060154,9.764497338
36:02.9,1.42E+12,-1.9338286,-9.528585,0.934357,9.767632679,-1.977681393,-9.50849091,0.88540878,9.766028645
36:02.9,1.42E+12,-1.9658619,-9.661958,0.97567105,9.908076473,-1.982695965,-9.51472695,0.873218131,9.771441665
36:03.0,1.42E+12,-1.9372715,-9.591005,0.91639435,9.827521375,-1.984483249,-9.51695731,0.872026609,9.773849924
36:03.0,1.42E+12,-1.8744022,-9.536968,1.0100995,9.771767662,-1.976355153,-9.52089713,0.873233101,9.776060721
36:03.0,1.42E+12,-1.9856209,-9.525442,0.8159532,9.764349199,-1.966808009,-9.5313963,0.872140373,9.783909298
36:03.0,1.42E+12,-1.9694545,-9.612111,0.7933502,9.843822095,-1.957467431,-9.54021894,0.871182365,9.790259092
36:03.0,1.42E+12,-1.9296373,-9.486822,0.8884026,9.721756577,-1.955635237,-9.54342826,0.865796565,9.792437512
36:03.1,1.42E+12,-1.9532881,-9.559422,0.9045689,9.798781979,-1.961431183,-9.5449611,0.860294007,9.794421396
36:03.1,1.42E+12,-1.9374211,-9.509126,0.93001604,9.748949053,-1.963817221,-9.5435181,0.862069316,9.793631013
36:03.1,1.42E+12,-2.0425026,-9.569001,0.8168514,9.818596805,-1.968439609,-9.54168592,0.865173861,9.792978848
36:03.1,1.42E+12,-2.0862117,-9.587862,0.8710387,9.850791106,-1.974543915,-9.53961424,0.870936877,9.792575489
36:03.1,1.42E+12,-2.0056791,-9.537716,0.9216335,9.78979997,-1.974654683,-9.5399705,0.875469453,9.793320575
36:03.2,1.42E+12,-2.0957918,-9.658814,0.91893905,9.926201697,-1.977905923,-9.54170389,0.87898115,9.795971279
36:03.2,1.42E+12,-1.9371217,-9.484726,0.911754,9.72336172,-1.977666421,-9.53777905,0.880169678,9.792199686
36:03.2,1.42E+12,-1.9282901,-9.359437,0.9827064,9.606408045,-1.974232563,-9.53241421,0.882154549,9.786456537
36:03.2,1.42E+12,-1.8603314,-9.699679,0.8060738,9.909306766,-1.970029303,-9.53460865,0.883441873,9.787864266
36:03.2,1.42E+12,-1.9616706,-9.524544,0.963696,9.772092915,-1.970319699,-9.53272257,0.887648126,9.786449609
36:03.3,1.42E+12,-1.8628762,-9.469907,1.053659,9.708740578,-1.967739067,-9.53102809,0.889288716,9.784458435
36:03.3,1.42E+12,-1.8574873,-9.448951,0.9939331,9.680952282,-1.963475931,-9.52965993,0.8881421,9.782146018
36:03.3,1.42E+12,-1.916315,-9.47814,0.98764616,9.7202287,-1.958796659,-9.53079457,0.885717144,9.7820088
36:03.3,1.42E+12,-2.0722907,-9.460477,0.87148774,9.723914062,-1.961209641,-9.53095325,0.87893924,9.78193683
36:03.3,1.42E+12,-1.9648142,-9.56481,1.0975177,9.826018028,-1.962862207,-9.53350395,0.878388386,9.784683565
36:03.4,1.42E+12,-1.9531385,-9.489367,0.9909393,9.738829332,-1.956230997,-9.53881192,0.876753784,9.788199007
36:03.4,1.42E+12,-2.032174,-9.586365,0.8716374,9.838082986,-1.928933761,-9.54583232,0.877130999,9.787417074
36:03.4,1.42E+12,-2.057172,-9.477093,0.8836125,9.737967931,-1.906480451,-9.54964042,0.888833663,9.785765608
36:03.4,1.42E+12,-1.9402652,-9.464519,0.9190887,9.70497156,-1.905360781,-9.55020626,0.906790321,9.786963156
36:03.4,1.42E+12,-1.8883232,-9.547895,0.895887,9.773979586,-1.930921626,-9.5447007,0.914984281,9.785360481
36:03.5,1.42E+12,-1.8363812,-9.558523,0.9812096,9.782659666,-1.94864477,-9.54232065,0.921995701,9.786123828
36:03.5,1.42E+12,-1.8920654,-9.53622,0.95695996,9.769092882,-1.950174588,-9.54036573,0.915750687,9.783798318
36:03.5,1.42E+12,-1.9014958,-9.477691,0.89169574,9.707596729,-1.955281966,-9.53021383,0.899961521,9.772775255
36:03.5,1.42E+12,-1.9160156,-9.413923,0.8551717,9.644914757,-1.962335298,-9.52344489,0.886241055,9.765745501
36:03.5,1.42E+12,-2.009571,-9.568552,0.93630296,9.822027602,-1.970020316,-9.53113589,0.885301011,9.774617988
36:03.6,1.42E+12,-2.0350182,-9.481133,1.0413845,9.752828498,-1.97603481,-9.53583909,0.899192125,9.781402329
36:03.6,1.42E+12,-1.9833755,-9.574091,0.92552537,9.821079068,-1.97533726,-9.53832093,0.912610222,9.784494494
36:03.6,1.42E+12,-1.9923569,-9.534123,0.89109695,9.780748497,-1.970220898,-9.53667734,0.911987517,9.781738017
36:03.6,1.42E+12,-1.9866687,-9.461824,0.9891431,9.718609469,-1.966999598,-9.53133346,0.910858865,9.77575075
36:03.6,1.42E+12,-2.0074754,-9.508677,0.82897615,9.753568436,-1.96213771,-9.52666318,0.911107348,9.770181039
36:03.7,1.42E+12,-1.9734961,-9.431138,0.7747888,9.666506531,-1.956326792,-9.5241574,0.912634172,9.766595947
36:03.7,1.42E+12,-1.9516416,-9.5898075,0.8140073,9.82017926,-1.95501552,-9.52628597,0.911538452,9.768311684
36:03.7,1.42E+12,-1.9040406,-9.552685,0.9136999,9.783353659,-1.955740014,-9.52618119,0.909799068,9.768178873
36:03.7,1.42E+12,-1.8438656,-9.621991,0.8464897,9.833569849,-1.956263924,-9.52903127,0.905592814,9.77065302
36:03.7,1.42E+12,-1.9179616,-9.519604,0.77957886,9.742134274,-1.959871424,-9.53073473,0.903158876,9.772788681
36:03.8,1.42E+12,-2.0157082,-9.436676,0.77838135,9.680899287,-1.969370668,-9.52847143,0.903479211,9.77234012
36:03.8,1.42E+12,-1.9209553,-9.508826,0.84619033,9.737755349,-1.971113042,-9.52793255,0.902398458,9.772052384
36:03.8,1.42E+12,-2.0222945,-9.547746,0.8789722,9.799067346,-1.972253668,-9.53030363,0.901754798,9.774537349
36:03.8,1.42E+12,-2.0213964,-9.492062,0.8071216,9.738415153,-1.969903552,-9.53086947,0.899757951,9.774410368
36:03.8,1.42E+12,-1.988914,-9.448202,0.7500902,9.684365505,-1.96625414,-9.52913307,0.898111375,9.77180761
36:03.9,1.42E+12,-1.9685564,-9.4684105,0.75817335,9.700558671,-1.964760248,-9.52650454,0.895264295,9.768696797
36:03.9,1.42E+12,-2.097139,-9.503288,0.8184979,9.766289654,-1.965122494,-9.52353772,0.896827044,9.766008017
36:03.9,1.42E+12,-2.048041,-9.491313,0.8186476,9.744212554,-1.963673508,-9.52294496,0.896180388,9.765066677
36:03.9,1.42E+12,-2.0800745,-9.461974,0.8029303,9.721129511,-1.966598426,-9.52161274,0.893551854,9.764136614
36:03.9,1.42E+12,-2.0222945,-9.577085,0.91579556,9.831017936,-1.967727078,-9.51991528,0.892354344,9.762595443
36:04.0,1.42E+12,-2.0685484,-9.471404,0.8957373,9.735950468,-1.970352616,-9.51752326,0.891941203,9.760764025
36:04.0,1.42E+12,-2.0673509,-9.582323,0.9475296,9.848485476,-1.97421159,-9.51843036,0.890689805,9.762298381
36:04.0,1.42E+12,-2.06301,-9.489965,0.74664736,9.74027352,-1.975759372,-9.51772082,0.889303689,9.761816868
36:04.0,1.42E+12,-1.9303857,-9.480984,0.7415579,9.703883484,-1.974977996,-9.51509828,0.888267843,9.759018095
36:04.0,1.42E+12,-1.9308348,-9.524095,0.8414003,9.754202328,-1.975001946,-9.51584374,0.887327797,9.75966701
36:04.1,1.42E+12,-2.032623,-9.58397,0.88091815,9.836668847,-1.976588644,-9.5163347,0.886854782,9.760424748
36:04.1,1.42E+12,-2.0996838,-9.535321,0.9303154,9.807981718,-1.979833898,-9.5168586,0.886860769,9.761605401
36:04.1,1.42E+12,-1.938918,-9.491612,0.8241861,9.722622285,-1.977762206,-9.51531082,0.887007463,9.759685911
36:04.2,1.42E+12,-1.9127225,-9.470356,0.83855623,9.69790321,-1.974292422,-9.5129607,0.886357813,9.756628153
36:04.2,1.42E+12,-1.9657123,-9.532477,0.721799,9.759771329,-1.973493086,-9.51285592,0.882361123,9.75602758
36:04.2,1.42E+12,-2.0392094,-9.587563,0.8839119,9.841800623,-1.972361438,-9.5114309,0.88166058,9.754339558
36:04.2,1.42E+12,-2.0857627,-9.618399,0.7964937,9.874128193,-1.975334258,-9.51410436,0.879355374,9.757354888
36:04.2,1.42E+12,-2.0124152,-9.539513,0.77179503,9.779968854,-1.97701676,-9.51770588,0.875137147,9.760826104
36:04.2,1.42E+12,-2.0416045,-9.50254,0.7032376,9.744791353,-1.980642222,-9.5137631,0.873080423,9.757535796
36:04.2,1.42E+12,-2.2282662,-9.417217,0.72808594,9.704599704,-1.985974134,-9.51161656,0.868368222,9.756185932
36:04.3,1.42E+12,-2.2326074,-9.618998,0.66431856,9.897018616,-1.993368758,-9.51459838,0.860581413,9.759951492
36:04.3,1.42E+12,-2.049538,-9.575887,0.68302965,9.81655476,-1.997209772,-9.5171371,0.854363344,9.762663542
36:04.3,1.42E+12,-1.9601738,-9.595047,0.76790315,9.823282726,-1.998086948,-9.51947524,0.849968484,9.764724622
36:04.3,1.42E+12,-2.0088227,-9.628128,0.626597,9.855396553,-1.996817588,-9.52282826,0.845070669,9.767354272
36:04.3,1.42E+12,-1.972598,-9.69459,0.7348219,9.920493,-1.996973264,-9.52542386,0.837816753,9.769243772
36:04.4,1.42E+12,-2.0833676,-9.553583,0.77014846,9.808389131,-1.999577846,-9.52670818,0.833400936,9.770634968
36:04.4,1.42E+12,-2.1511767,-9.456585,0.6268964,9.718413459,-2.0019579,-9.52411258,0.828506116,9.768241577
36:04.4,1.42E+12,-2.2219794,-9.434731,0.7735913,9.723671374,-2.005254048,-9.52326534,0.826305692,9.767955646
36:04.4,1.42E+12,-2.0977378,-9.499546,0.78122544,9.75972291,-2.0084035,-9.52396588,0.823548427,9.769050673
36:04.5,1.42E+12,-2.047143,-9.536369,0.8655002,9.791946628,-2.011579896,-9.52373536,0.822940691,9.769410014
36:04.5,1.42E+12,-2.0921993,-9.442215,0.74290514,9.699723195,-2.016696258,-9.5214092,0.818174602,9.767751284
36:04.5,1.42E+12,-2.088906,-9.5053835,0.8026309,9.765247571,-2.02063307,-9.52079247,0.815088021,9.767674378
36:04.5,1.42E+12,-2.0472927,-9.422905,0.79020673,9.675069649,-2.023549008,-9.51969675,0.81305824,9.767023837
36:04.5,1.42E+12,-2.0752845,-9.484726,0.9102571,9.751687087,-2.026734386,-9.52111281,0.814159948,9.769159283
36:04.5,1.42E+12,-2.0998335,-9.578431,0.77523786,9.836495051,-2.028539636,-9.52131039,0.810938646,9.769448632
36:04.6,1.42E+12,-2.135609,-9.449699,0.86669767,9.726705601,-2.030551452,-9.52068171,0.80744491,9.768926174
36:04.6,1.42E+12,-2.0565734,-9.5452,0.7544311,9.793339751,-2.03201541,-9.52010389,0.804023024,9.768371388
36:04.6,1.42E+12,-1.8776953,-9.664352,0.5394781,9.859841573,-2.029722178,-9.52270847,0.796990647,9.769953249
36:04.6,1.42E+12,-2.049987,-9.653126,0.66940796,9.891076549,-2.030988544,-9.52653451,0.790595945,9.773402591
36:04.6,1.42E+12,-2.0143611,-9.556427,0.8454419,9.802944438,-2.031126258,-9.52748951,0.79092526,9.774390111
36:04.7,1.42E+12,-1.8944604,-9.576785,0.6768924,9.785804743,-2.029545544,-9.53040245,0.788967332,9.776776075
36:04.7,1.42E+12,-1.7714163,-9.663156,0.71626055,9.850255264,-2.025941038,-9.53186942,0.787012397,9.777377595
36:04.7,1.42E+12,-1.8874251,-9.585018,0.6450087,9.790351362,-2.025608728,-9.53251608,0.781638573,9.777517549
36:04.7,1.42E+12,-1.9577788,-9.613758,0.6779402,9.834472209,-2.027886992,-9.53235142,0.778267583,9.777535597
36:04.7,1.42E+12,-2.0282822,-9.571246,0.5876779,9.801430711,-2.030093404,-9.53338426,0.774429563,9.778721525
36:04.8,1.42E+12,-2.079775,-9.423204,0.7324269,9.677741825,-2.03137474,-9.53311482,0.773510474,9.778658376
36:04.8,1.42E+12,-1.9443069,-9.527388,0.8053253,9.757048748,-2.031841772,-9.53348606,0.772693174,9.779044244
36:04.8,1.42E+12,-1.9708017,-9.548943,0.81804883,9.784455818,-2.030811916,-9.53351,0.771474706,9.778752014
36:04.8,1.42E+12,-2.0074754,-9.48278,0.8909473,9.733799931,-2.030533496,-9.53332436,0.77315122,9.778659709
36:04.8,1.42E+12,-1.9681073,-9.508377,0.8196954,9.744464073,-2.030117362,-9.53452786,0.774543324,9.77986168
36:04.9,1.42E+12,-1.9619701,-9.507778,0.79799056,9.740839702,-2.029985636,-9.53531521,0.775339669,9.780667301
36:04.9,1.42E+12,-2.1136048,-9.504335,0.8623567,9.774628797,-2.030314952,-9.53533615,0.776216845,9.780834084
36:04.9,1.42E+12,-2.0200493,-9.546847,0.7342232,9.785804541,-2.029755118,-9.53644683,0.774528357,9.781665924
36:04.9,1.42E+12,-2.013912,-9.510174,0.7183562,9.747578504,-2.028431868,-9.53741083,0.772836875,9.782194904
36:04.9,1.42E+12,-2.100582,-9.618998,0.7158115,9.871674294,-2.029997618,-9.53824909,0.768837193,9.783008031
36:05.0,1.42E+12,-2.0263362,-9.591305,0.69455564,9.827592662,-2.029153374,-9.54064711,0.76481356,9.784840875
36:05.0,1.42E+12,-1.8594333,-9.518107,0.79454774,9.730527179,-2.024995022,-9.53936279,0.761753923,9.782481709
36:05.0,1.42E+12,-2.0142114,-9.669891,0.86954176,9.9156413,-2.02401905,-9.54296131,0.764211811,9.785989064
36:05.0,1.42E+12,-2.0011885,-9.611961,0.8375084,9.853728736,-2.025435106,-9.54558085,0.766130821,9.788985969
36:05.0,1.42E+12,-1.9384689,-9.548493,0.90037763,9.784787178,-2.025587788,-9.54606881,0.767310368,9.789597666
36:05.1,1.42E+12,-1.9929557,-9.474398,0.9889934,9.732121959,-2.024794442,-9.54387737,0.769471873,9.787506729
36:05.1,1.42E+12,-2.0874093,-9.472901,0.83795744,9.736287979,-2.024548952,-9.54262897,0.767624713,9.786072854
36:05.1,1.42E+12,-2.0598664,-9.450598,0.75278455,9.701728543,-2.02696792,-9.54180869,0.766196682,9.785654979
36:05.2,1.42E+12,-2.2044659,-9.566307,0.65234345,9.838671226,-2.032802788,-9.54372771,0.762472427,9.788470339
36:05.2,1.42E+12,-2.0865111,-9.525742,0.70623136,9.777118796,-2.035218764,-9.54359301,0.762161074,9.788817289
36:05.2,1.42E+12,-2.0127146,-9.491612,0.773741,9.733467705,-2.034688868,-9.54167399,0.759957656,9.78665063
36:05.2,1.42E+12,-2.0760329,-9.439221,0.710722,9.690920052,-2.034494272,-9.53809043,0.758242222,9.782986467
36:05.2,1.42E+12,-1.9965482,-9.4965515,0.8158035,9.738389521,-2.034176932,-9.5372312,0.759122391,9.782154881
36:05.2,1.42E+12,-2.0453467,-9.529334,0.8650511,9.784680016,-2.034251776,-9.53776708,0.762358661,9.782952654
36:05.2,1.42E+12,-2.1246817,-9.478439,0.798739,9.746438436,-2.032180086,-9.53899152,0.763771723,9.783789429
36:05.3,1.42E+12,-2.1395009,-9.621243,0.812211,9.88966469,-2.030317956,-9.53903642,0.766729571,9.78364235
36:05.3,1.42E+12,-1.8904189,-9.45419,0.7538324,9.67076292,-2.027135574,-9.53660248,0.768145626,9.780726513
36:05.3,1.42E+12,-1.9642154,-9.476045,0.7794292,9.708814596,-2.027216406,-9.53422244,0.768376147,9.778437151
36:05.3,1.42E+12,-1.9814296,-9.493258,0.8068222,9.731339722,-2.026668544,-9.53152504,0.771980651,9.775956014
36:05.3,1.42E+12,-2.1921914,-9.6002865,0.75847274,9.876562404,-2.031060412,-9.52963897,0.772453668,9.775077402
36:05.4,1.42E+12,-2.0058289,-9.610016,0.65878004,9.839194491,-2.029509638,-9.53076763,0.7702263,9.775693509
36:05.4,1.42E+12,-2.0441492,-9.645493,0.7123686,9.885421093,-2.027369088,-9.53454579,0.771935744,9.779033662
36:05.4,1.42E+12,-1.9896625,-9.49266,0.6264473,9.719145382,-2.02272275,-9.53570437,0.768992864,9.778943142
36:05.5,1.42E+12,-2.0130138,-9.527687,0.62824357,9.758264913,-2.02102827,-9.53626719,0.765933226,9.778913982
36:05.5,1.42E+12,-1.9648142,-9.43503,0.7361691,9.665517621,-2.019381694,-9.53424041,0.763346604,9.776385402
36:05.5,1.42E+12,-1.9154168,-9.442814,0.6715036,9.658492369,-2.015846044,-9.53425239,0.761918574,9.775560786
36:05.5,1.42E+12,-1.9697539,-9.445807,0.75937086,9.678834868,-2.013463002,-9.53306086,0.761053373,9.773832532
36:05.5,1.42E+12,-2.0131636,-9.5230465,0.70174074,9.758774636,-2.01278042,-9.53506369,0.759284053,9.775506631
36:05.5,1.42E+12,-1.9943029,-9.514813,0.72045183,9.748228625,-2.011160788,-9.53566543,0.755487948,9.775437462
36:05.5,1.42E+12,-1.852847,-9.552086,0.6542894,9.752101495,-2.006221058,-9.53513853,0.753068978,9.773749591
36:05.6,1.42E+12,-1.9158659,-9.551638,0.7206015,9.768500251,-2.001826196,-9.53717731,0.750147055,9.774585484
36:05.6,1.42E+12,-2.0044816,-9.628278,0.81730044,9.868620154,-2.00078436,-9.53883887,0.751404442,9.776091092
36:05.6,1.42E+12,-1.9742446,-9.480685,0.8490344,9.721208218,-2.002715346,-9.53516553,0.757595568,9.773318425
36:05.6,1.42E+12,-2.0417542,-9.533674,0.9448352,9.795530292,-2.00255069,-9.53277649,0.763104113,9.7714075
36:05.6,1.42E+12,-1.995201,-9.438024,1.0041119,9.698730059,-2.002167488,-9.53040843,0.766277513,9.769323212
36:05.7,1.42E+12,-2.0064275,-9.398805,0.91070616,9.653635194,-2.00440683,-9.52684883,0.770953788,9.766679821
36:05.7,1.42E+12,-2.1119583,-9.508826,0.8840616,9.780577931,-2.01121767,-9.52376223,0.774309809,9.765286275
36:05.7,1.42E+12,-2.1263282,-9.50224,0.8586145,9.77502202,-2.015995732,-9.52210667,0.778581925,9.764979688
36:05.7,1.42E+12,-2.1761746,-9.417366,0.7316785,9.69318687,-2.020363648,-9.51817883,0.779656691,9.762153981
36:05.7,1.42E+12,-2.1659958,-9.425599,0.8092172,9.705065007,-2.02311792,-9.51526589,0.784087477,9.760226667
36:05.8,1.42E+12,-2.0680993,-9.521251,0.8696915,9.782004837,-2.022884406,-9.51722683,0.786832769,9.762311927
36:05.8,1.42E+12,-2.0213964,-9.671389,0.75173676,9.908931161,-2.024426196,-9.52010685,0.785760998,9.765349575
36:05.8,1.42E+12,-1.8720071,-9.628877,0.8674461,9.847443607,-2.022450304,-9.52170553,0.786748943,9.766609331
36:05.8,1.42E+12,-1.9440074,-9.595646,0.8515791,9.827551775,-2.021180944,-9.52396285,0.785961579,9.768484368
36:05.8,1.42E+12,-1.9839743,-9.543554,0.77014846,9.777970425,-2.021498284,-9.52466639,0.784970641,9.769154495
36:05.9,1.42E+12,-2.0395088,-9.541758,0.6953041,9.782034025,-2.023049058,-9.52534599,0.782916911,9.769978382
36:05.9,1.42E+12,-2.0489392,-9.645493,0.6803352,9.884156162,-2.021755746,-9.52816915,0.779276481,9.772168929
36:05.9,1.42E+12,-1.9899619,-9.687255,0.4815486,9.901249762,-2.021153998,-9.53097731,0.774222989,9.774477833
36:05.9,1.42E+12,-1.95718,-9.548493,0.5366341,9.761774853,-2.020019358,-9.53174369,0.770588547,9.77476176
36:05.9,1.42E+12,-1.9794836,-9.560768,0.6578819,9.785675688,-2.01759739,-9.53057909,0.769429955,9.773041788
36:06.0,1.42E+12,-1.9905607,-9.418863,0.7604187,9.656891255,-2.01688188,-9.52713025,0.770747217,9.76962776
36:06.0,1.42E+12,-1.9775376,-9.588611,0.893492,9.831095759,-2.019243966,-9.52854033,0.772726102,9.771639132
36:06.0,1.42E+12,-1.8732047,-9.460327,0.8668474,9.682877011,-2.016423832,-9.52434905,0.772672215,9.766983846
36:06.0,1.42E+12,-1.9422112,-9.42994,0.9012758,9.669966433,-2.015244286,-9.52070863,0.773947563,9.7633086
36:06.0,1.42E+12,-1.9570303,-9.440568,0.8029303,9.674657039,-2.015615514,-9.51855013,0.771998616,9.761105997
36:06.1,1.42E+12,-1.9809805,-9.439521,0.79679304,9.678001839,-2.01537601,-9.51785259,0.768154609,9.760023595
36:06.1,1.42E+12,-2.0344193,-9.485774,0.6839278,9.725560524,-2.01431621,-9.51811005,0.765074016,9.759809045
36:06.1,1.42E+12,-1.9857706,-9.600436,0.77194476,9.833999948,-2.012834294,-9.52110681,0.76545722,9.762454474
36:06.1,1.42E+12,-1.9898121,-9.587563,0.7598199,9.821305552,-2.008541218,-9.52153193,0.767606749,9.76210716
36:06.1,1.42E+12,-1.966311,-9.740844,0.6854246,9.96093508,-2.006137216,-9.52583397,0.767190614,9.765783486
36:06.2,1.42E+12,-2.0103195,-9.668095,0.7723938,9.905051116,-2.006089314,-9.52936363,0.76716367,9.769215154
36:06.2,1.42E+12,-1.9829265,-9.571995,0.7316785,9.802573091,-2.004227186,-9.53201911,0.7675828,9.771448215
36:06.2,1.42E+12,-1.9613713,-9.366772,0.72105056,9.597046889,-2.003523648,-9.52942352,0.765687741,9.768621362
36:06.2,1.42E+12,-1.8823357,-9.4739485,0.6601273,9.681665968,-2.000263428,-9.52831581,0.761589265,9.766561081
36:06.2,1.42E+12,-1.8805394,-9.525592,0.76131684,9.739247133,-1.995380582,-9.52925887,0.760840822,9.766417255
36:06.3,1.42E+12,-1.8229092,-9.492809,0.7867639,9.698217264,-1.989048748,-9.52669019,0.76033188,9.762588307
36:06.3,1.42E+12,-1.9348764,-9.548344,0.72134995,9.769082126,-1.989937898,-9.52857327,0.759682231,9.764554691
36:06.3,1.42E+12,-2.1007316,-9.518556,0.875679,9.786868513,-1.992668222,-9.52942349,0.761607227,9.766115769
36:06.3,1.42E+12,-2.0100203,-9.499396,0.7994875,9.742581087,-1.993240036,-9.52954625,0.761460533,9.766340596
36:06.3,1.42E+12,-1.920656,-9.571546,0.5947133,9.780444581,-1.987809328,-9.52897144,0.758185344,9.76441824
36:06.4,1.42E+12,-1.972598,-9.51661,0.6746471,9.742287076,-1.98714471,-9.52710332,0.758502685,9.762480092
36:06.4,1.42E+12,-1.9622694,-9.427246,0.8750803,9.668983084,-1.985507114,-9.52273838,0.761756919,9.758151331
36:06.5,1.42E+12,-2.0366647,-9.452543,0.9169931,9.712849665,-1.986447158,-9.52193604,0.767567835,9.758025417
36:06.5,1.42E+12,-1.9719992,-9.595197,0.86475176,9.833838616,-1.985626866,-9.52328624,0.772297999,9.759536891
36:06.5,1.42E+12,-2.0700452,-9.413176,0.91265213,9.681213945,-1.987731486,-9.52284916,0.77582766,9.759850818
36:06.5,1.42E+12,-1.9422112,-9.573043,0.9171428,9.811039065,-1.988267374,-9.52545374,0.780740444,9.762901751
36:06.5,1.42E+12,-1.8592836,-9.487421,0.8785231,9.707723501,-1.986057968,-9.52628602,0.783123489,9.763479524
36:06.5,1.42E+12,-1.9205062,-9.445957,0.9596544,9.686866587,-1.98420482,-9.52474423,0.788281762,9.762041363
36:06.5,1.42E+12,-1.9972966,-9.533226,0.8759784,9.779515828,-1.984264694,-9.52511249,0.791392293,9.762667107
36:06.5,1.42E+12,-1.9318826,-9.491612,0.8222401,9.721056914,-1.985845406,-9.52390301,0.794751307,9.762046216
36:06.6,1.42E+12,-1.943259,-9.581575,0.8798703,9.81616049,-1.986393268,-9.52450175,0.797936683,9.76299942
36:06.6,1.42E+12,-1.9073337,-9.457334,0.8589139,9.685908389,-1.98445031,-9.52108287,0.798768952,9.759345185
36:06.6,1.42E+12,-1.9359242,-9.452693,0.93345886,9.693944136,-1.983683902,-9.52052303,0.800457442,9.758799903
36:06.6,1.42E+12,-1.8480569,-9.517059,0.79035646,9.726992837,-1.979809956,-9.52019073,0.797367867,9.757429154
36:06.6,1.42E+12,-2.0303779,-9.4684105,0.8634045,9.72207278,-1.980513494,-9.52079846,0.794553719,9.757896009
36:06.7,1.42E+12,-2.012565,-9.489367,0.7447014,9.728981659,-1.980636244,-9.5226097,0.791233624,9.759402938
36:06.7,1.42E+12,-1.9124231,-9.489965,0.88346285,9.720972401,-1.97664554,-9.52223248,0.791221649,9.758210827
36:06.7,1.42E+12,-2.020648,-9.58906,0.74515045,9.827936671,-1.974531936,-9.52396888,0.788952368,9.75926912
36:06.8,1.42E+12,-1.9446062,-9.530381,0.74095917,9.754930844,-1.969900568,-9.52622918,0.789137981,9.760504
36:06.8,1.42E+12,-1.8047969,-9.528436,0.8402028,9.734183335,-1.96267659,-9.52828592,0.789757693,9.761086367
36:06.8,1.42E+12,-1.9669098,-9.5230465,0.94423646,9.769786656,-1.9606528,-9.52832183,0.791248592,9.760842003
36:06.8,1.42E+12,-1.8973045,-9.487421,0.89992857,9.717036227,-1.958170962,-9.52464247,0.794212428,9.757004104
36:06.8,1.42E+12,-1.9320323,-9.533375,0.83062273,9.762577622,-1.959371466,-9.52273243,0.793475961,9.755306785
36:06.8,1.42E+12,-1.9896625,-9.457483,0.72778654,9.691873648,-1.960284568,-9.51996917,0.79100011,9.752593222
36:06.8,1.42E+12,-1.9481987,-9.479787,0.78227323,9.709469149,-1.959569056,-9.51869383,0.791242605,9.751223196
36:06.9,1.42E+12,-2.0679498,-9.487571,0.8418494,9.746749728,-1.960137876,-9.51761009,0.794173511,9.750517511
36:06.9,1.42E+12,-1.9362236,-9.486373,0.68123335,9.705890655,-1.957883564,-9.51442769,0.794191474,9.7469522
36:06.9,1.42E+12,-2.0031345,-9.540859,0.91325086,9.791555822,-1.958147016,-9.51149977,0.802825519,9.744758322
36:06.9,1.42E+12,-2.009122,-9.553883,0.88540876,9.802917946,-1.959185856,-9.51160757,0.809801013,9.745581183
36:06.9,1.42E+12,-2.063459,-9.51197,0.8690927,9.771937292,-1.960865364,-9.51063161,0.814025229,9.745306416
36:07.0,1.42E+12,-1.9740949,-9.569151,0.8313711,9.805961424,-1.960536048,-9.51363737,0.815444277,9.748287819
36:07.0,1.42E+12,-1.9236498,-9.525143,0.8503816,9.754584901,-1.959458292,-9.51236801,0.814582069,9.746757602
36:07.0,1.42E+12,-2.0775297,-9.457034,0.7958949,9.71519791,-1.963544792,-9.51230215,0.813163019,9.74740402
36:07.0,1.42E+12,-2.01481,-9.4772415,0.79544586,9.721640803,-1.964996768,-9.51324818,0.81104642,9.748437507
36:07.1,1.42E+12,-2.0437002,-9.578731,0.7927515,9.826355022,-1.966730166,-9.51601144,0.810842844,9.751471467
36:07.1,1.42E+12,-1.9131715,-9.50224,0.782872,9.724488612,-1.965373986,-9.51726582,0.810564423,9.752401202
36:07.1,1.42E+12,-1.9221529,-9.519304,0.87298465,9.750585758,-1.963128658,-9.51793642,0.81434556,9.752901707
36:07.2,1.42E+12,-2.065405,-9.570648,0.87672687,9.830150098,-1.964721346,-9.51734066,0.816441202,9.75282471
36:07.2,1.42E+12,-2.1049228,-9.541758,0.82298857,9.805771561,-1.96702356,-9.51642456,0.817704576,9.75251403
36:07.2,1.42E+12,-1.9848725,-9.4491005,0.83945435,9.691744049,-1.96739479,-9.51058969,0.820785171,9.747130209
36:07.2,1.42E+12,-1.9940034,-9.536968,0.89229447,9.783966354,-1.967068468,-9.50796715,0.823183184,9.744708514
36:07.2,1.42E+12,-1.9950513,-9.479937,0.832419,9.723289392,-1.967310964,-9.50612599,0.825197994,9.74312284
36:07.2,1.42E+12,-1.9654129,-9.489367,0.81161225,9.724692714,-1.967391796,-9.50857789,0.827009228,9.745675757
36:07.2,1.42E+12,-1.9853215,-9.484876,0.8659493,9.729041185,-1.969451512,-9.50879644,0.831125668,9.746623261
36:07.3,1.42E+12,-2.0748353,-9.595646,0.7990384,9.849864265,-1.97333743,-9.51019752,0.831880099,9.748835604
36:07.3,1.42E+12,-1.9264939,-9.464069,0.7171587,9.684745602,-1.975409124,-9.50962272,0.830487995,9.748566171
36:07.3,1.42E+12,-1.9872675,-9.387428,0.9315129,9.64057845,-1.976456946,-9.5064044,0.834691254,9.745996097
36:07.3,1.42E+12,-1.9691551,-9.46347,0.88196594,9.70632269,-1.973825416,-9.50530268,0.834816993,9.744385181
36:07.3,1.42E+12,-2.0636086,-9.517658,0.81640226,9.772963057,-1.974897182,-9.50566792,0.835155288,9.74499282
36:07.3,1.42E+12,-1.9627185,-9.575288,0.8625064,9.812355552,-1.975738432,-9.50574276,0.84051115,9.745631039
36:07.4,1.42E+12,-1.8946102,-9.628278,0.71700895,9.839074494,-1.974178676,-9.50797612,0.841358387,9.747566788
36:07.4,1.42E+12,-1.9035915,-9.570049,0.80742097,9.790884898,-1.973005118,-9.51083218,0.8400052,9.750004824
36:07.5,1.42E+12,-1.9197578,-9.543255,0.9443861,9.780135536,-1.97066698,-9.51264642,0.84055306,9.751350541
36:07.5,1.42E+12,-1.968257,-9.486373,1.0279125,9.742787713,-1.970592136,-9.51046994,0.843816275,9.749529523
36:07.5,1.42E+12,-1.9312838,-9.48787,0.8467891,9.719392267,-1.967816908,-9.51196382,0.842499015,9.75029309
36:07.5,1.42E+12,-1.9073337,-9.571396,0.8687933,9.7981807,-1.967119358,-9.51193088,0.841532025,9.750035922
36:07.5,1.42E+12,-1.9339783,-9.581426,0.8919951,9.815276436,-1.968613252,-9.51381098,0.841801465,9.752186981
36:07.5,1.42E+12,-1.9151175,-9.549691,0.8243358,9.774651029,-1.968505478,-9.51588566,0.839095093,9.75394267
36:07.5,1.42E+12,-2.0016375,-9.524843,0.8393047,9.769013217,-1.968592296,-9.515718,0.838361619,9.753732618
36:07.5,1.42E+12,-2.1068687,-9.509725,0.8186476,9.77465852,-1.972092018,-9.51608026,0.838289769,9.75480465
36:07.6,1.42E+12,-1.9484981,-9.425,0.90022796,9.666316787,-1.9721968,-9.51294876,0.838696922,9.751807776
36:07.6,1.42E+12,-2.114503,-9.532627,0.80727124,9.797641926,-1.976340186,-9.51445462,0.837664069,9.754042447
36:07.6,1.42E+12,-2.0516336,-9.519903,0.7623646,9.768262555,-1.978654374,-9.51579882,0.834242183,9.755528815
36:07.6,1.42E+12,-2.0227437,-9.575587,0.7887099,9.818626267,-1.98214811,-9.51696938,0.834209252,9.757361484
36:07.6,1.42E+12,-1.9911593,-9.474847,0.7972421,9.714578529,-1.981363738,-9.51709811,0.832886004,9.757211599
36:07.7,1.42E+12,-2.0375628,-9.494157,0.78227323,9.741798125,-1.981863694,-9.51719391,0.833637441,9.757467928
36:07.7,1.42E+12,-1.9984941,-9.536369,0.7497908,9.772333325,-1.983585114,-9.51812199,0.830964,9.758495146
36:07.7,1.42E+12,-2.0728893,-9.571246,0.64845157,9.814586567,-1.98462994,-9.51776571,0.829030022,9.758228144
36:07.8,1.42E+12,-2.0004401,-9.520802,0.76116717,9.758422351,-1.985746618,-9.51757413,0.829434182,9.758297974
36:07.8,1.42E+12,-1.9694545,-9.491463,0.79709244,9.726354778,-1.98903977,-9.51683467,0.828571975,9.758141403
36:07.8,1.42E+12,-1.8839822,-9.607921,0.8643027,9.828965054,-1.987381218,-9.51853216,0.8269733,9.759324971
36:07.8,1.42E+12,-1.9980451,-9.623338,0.8279283,9.863380949,-1.98939603,-9.5212505,0.825533294,9.762251866
36:07.8,1.42E+12,-1.9854712,-9.639804,0.80742097,9.875213702,-1.990464808,-9.52337908,0.825069259,9.764504587
36:07.8,1.42E+12,-2.042353,-9.593699,0.6987469,9.833540233,-1.991518618,-9.5261034,0.824488466,9.767337919
36:07.8,1.42E+12,-1.9221529,-9.586664,0.92552537,9.821170787,-1.990997702,-9.52824094,0.827353509,9.769571952
36:07.9,1.42E+12,-1.9886147,-9.5217,0.80772036,9.76062352,-1.989411,-9.52892352,0.826670928,9.769849428
36:07.9,1.42E+12,-1.9809805,-9.610166,0.80397815,9.845098027,-1.990306138,-9.53139938,0.829125824,9.772633575
36:07.9,1.42E+12,-1.9490968,-9.581426,0.71790713,9.803983536,-1.989225384,-9.53221072,0.82521895,9.772882129
36:07.9,1.42E+12,-1.8390756,-9.417217,0.8053253,9.628848525,-1.985824456,-9.5294774,0.823617281,9.769400741
36:07.9,1.42E+12,-1.8729053,-9.5053835,0.966091,9.736191327,-1.982013382,-9.52934567,0.825557247,9.768685822
36:08.0,1.42E+12,-1.8411713,-9.614357,0.79439807,9.82124435,-1.97935491,-9.53024979,0.824817786,9.76899148
36:08.0,1.42E+12,-1.9429595,-9.493258,0.8861572,9.730483732,-1.979741104,-9.52961209,0.825533298,9.768509457
36:08.0,1.42E+12,-2.0407064,-9.535022,0.959355,9.798034965,-1.979004638,-9.53117185,0.8288025,9.770166198
36:08.0,1.42E+12,-1.9550843,-9.592203,0.7940987,9.821573487,-1.977810124,-9.53347108,0.828775557,9.772164852
36:08.1,1.42E+12,-2.0411553,-9.515562,0.7030879,9.757385292,-1.977759226,-9.5322077,0.826982285,9.770785457
36:08.1,1.42E+12,-1.95239,-9.519604,0.857417,9.755503623,-1.978543596,-9.53255498,0.828473185,9.771405757
36:08.1,1.42E+12,-1.9233503,-9.497899,0.83406556,9.726511561,-1.978567544,-9.53212688,0.827694803,9.770924273
36:08.1,1.42E+12,-1.9005977,-9.508377,0.8735834,9.735740996,-1.975271398,-9.53088146,0.827631934,9.769036091
36:08.1,1.42E+12,-1.9179616,-9.566756,0.6794371,9.78074802,-1.971532174,-9.53138142,0.824760904,9.76853562
36:08.1,1.42E+12,-2.0661535,-9.496851,0.7994875,9.751838261,-1.973157794,-9.53233643,0.823961567,9.769737505
36:08.2,1.42E+12,-2.0170555,-9.557625,0.8199948,9.802504782,-1.973618836,-9.53274957,0.822515574,9.770108273
36:08.2,1.42E+12,-1.9203566,-9.624236,0.8454419,9.850302537,-1.972124942,-9.53563555,0.822776032,9.772648536
36:08.2,1.42E+12,-1.9481987,-9.591754,0.93615323,9.832273686,-1.971780658,-9.53768329,0.825266851,9.774800155
36:08.2,1.42E+12,-1.9643651,-9.5696,0.7810757,9.800308855,-1.97136153,-9.53937777,0.823569379,9.776225509
36:08.2,1.42E+12,-2.0314257,-9.582772,0.8152048,9.829586382,-1.970493338,-9.53912029,0.823892707,9.775819951
36:08.3,1.42E+12,-1.9381696,-9.569151,0.70832705,9.789120465,-1.970726852,-9.54122193,0.823716074,9.777907448
36:08.3,1.42E+12,-2.0462449,-9.574539,0.7092252,9.816410527,-1.9719064,-9.54496415,0.81927032,9.78142409
36:08.3,1.42E+12,-2.0815713,-9.560768,0.701591,9.809865124,-1.974154724,-9.54691011,0.815662822,9.783494939
36:08.3,1.42E+12,-1.9808308,-9.636062,0.7659572,9.867323444,-1.972499168,-9.54927819,0.81465392,9.785382146
36:08.4,1.42E+12,-2.0549269,-9.457034,0.7671547,9.708076173,-1.974343336,-9.54691311,0.812746886,9.783296559
36:08.4,1.42E+12,-2.0124152,-9.526489,0.7367679,9.764560131,-1.976699436,-9.54487733,0.813142065,9.781806272
36:08.4,1.42E+12,-1.9314336,-9.522897,0.7111711,9.742780268,-1.977256278,-9.54393429,0.811217068,9.780844179
36:08.4,1.42E+12,-1.9375708,-9.558823,0.75712556,9.782561876,-1.977612538,-9.54424565,0.807471857,9.780892706
36:08.4,1.42E+12,-2.0339704,-9.548793,0.8390053,9.799000624,-1.978926806,-9.54549405,0.803693713,9.782016964
36:08.4,1.42E+12,-1.9261944,-9.467662,0.8744815,9.701111612,-1.978825018,-9.54508989,0.804247561,9.781651351
36:08.5,1.42E+12,-1.8284477,-9.481882,0.7728429,9.687445143,-1.977247298,-9.54329961,0.802328553,9.77943664
36:08.5,1.42E+12,-1.9100281,-9.502839,0.78242296,9.724419885,-1.976768294,-9.54172787,0.80013711,9.777619509
36:08.5,1.42E+12,-2.0713925,-9.651031,0.8710387,9.909176286,-1.979893794,-9.54375467,0.801071168,9.780310014
36:08.5,1.42E+12,-1.95239,-9.528585,0.8827144,9.766521567,-1.978908844,-9.54382951,0.801939362,9.780260181
36:08.5,1.42E+12,-1.939367,-9.508078,0.7529343,9.733016063,-1.97555881,-9.54379657,0.800625096,9.779427332
36:08.6,1.42E+12,-1.88503,-9.528436,0.7276369,9.740322693,-1.974289448,-9.54586529,0.797173275,9.78090745
36:08.6,1.42E+12,-1.9984941,-9.581875,0.8437953,9.824372636,-1.97196927,-9.54685025,0.797903756,9.781442064
36:08.6,1.42E+12,-2.0288808,-9.5423565,0.909359,9.797951759,-1.971514214,-9.54729932,0.800843644,9.782035848
36:08.6,1.42E+12,-1.9080821,-9.5335245,0.7288344,9.749875193,-1.969220982,-9.54645807,0.799646134,9.780660827
36:08.6,1.42E+12,-1.9478993,-9.509126,0.77419007,9.737410294,-1.968355782,-9.54714365,0.799185094,9.781117462
36:08.7,1.42E+12,-1.9785855,-9.532627,0.74739575,9.764444608,-1.967176236,-9.54791305,0.798487544,9.781570392
36:08.7,1.42E+12,-1.9285895,-9.601633,0.80592406,9.826511452,-1.965778144,-9.54921833,0.799610209,9.782653954
36:08.7,1.42E+12,-2.061513,-9.671688,0.79739183,9.921049256,-1.965550618,-9.55122717,0.802589015,9.784783208
36:08.7,1.42E+12,-1.9761904,-9.59834,0.8640033,9.83768067,-1.965065624,-9.55277793,0.804645737,9.786368374
36:08.7,1.42E+12,-1.9535875,-9.495355,0.82837737,9.729567296,-1.964748284,-9.55285577,0.805271436,9.786432625
36:08.8,1.42E+12,-2.0743864,-9.52185,0.767005,9.775326236,-1.968556368,-9.55113435,0.803325482,9.785359848
36:08.8,1.42E+12,-2.0466938,-9.499396,0.78466827,9.749009394,-1.969529342,-9.54865551,0.802460281,9.783072417
36:08.8,1.42E+12,-1.9202069,-9.636661,0.78496766,9.857413656,-1.968224056,-9.54859265,0.802011215,9.782716416
36:08.8,1.42E+12,-1.9543359,-9.556128,0.76251435,9.783682297,-1.966463714,-9.54784123,0.803286564,9.781719258
36:08.8,1.42E+12,-1.9770886,-9.493109,0.68662214,9.721082645,-1.967562428,-9.54597013,0.798508499,9.779717495
36:08.9,1.42E+12,-1.9636166,-9.513916,0.8731343,9.753601966,-1.967062466,-9.54581445,0.799816778,9.779577064
36:08.9,1.42E+12,-1.8456619,-9.546398,0.8972342,9.76448728,-1.964356094,-9.54453909,0.801681899,9.777964849
36:08.9,1.42E+12,-1.9014958,-9.618698,0.7960446,9.83710956,-1.963404074,-9.54528453,0.803244649,9.778627369
36:08.9,1.42E+12,-1.9327807,-9.5230465,0.8626561,9.755420617,-1.965278176,-9.54740112,0.804391265,9.781158811
36:08.9,1.42E+12,-1.9390677,-9.522897,0.780477,9.749599744,-1.966601424,-9.54775139,0.800678985,9.781426979
36:09.0,1.42E+12,-1.9240988,-9.483978,0.72703815,9.704461828,-1.968259974,-9.54514381,0.799331786,9.779091329
36:09.0,1.42E+12,-2.026486,-9.464219,0.7867639,9.710668578,-1.969930504,-9.54456303,0.79734392,9.778695026
36:09.0,1.42E+12,-2.063908,-9.513167,0.82598233,9.76945799,-1.970394536,-9.54412593,0.794676467,9.778123486
36:09.1,1.42E+12,-2.001488,-9.474547,0.7658075,9.713879565,-1.97132261,-9.54177281,0.794110643,9.775969608
36:09.1,1.42E+12,-1.9359242,-9.5934,0.78212357,9.817985707,-1.969217988,-9.54332957,0.795691356,9.777181616
36:09.1,1.42E+12,-1.873055,-9.580228,0.8812175,9.801308476,-1.967631288,-9.54454205,0.796167366,9.778097713
36:09.1,1.42E+12,-2.0468435,-9.585168,0.7858658,9.832731002,-1.970101152,-9.54628743,0.795203371,9.780222102
36:09.1,1.42E+12,-1.8727555,-9.549242,0.83376616,9.766801009,-1.969544308,-9.54710473,0.794407026,9.780843302
36:09.1,1.42E+12,-2.0074754,-9.605824,0.7256909,9.840144282,-1.971334584,-9.54788609,0.795332102,9.782031228
36:09.1,1.42E+12,-1.9871178,-9.553583,0.87148774,9.796891148,-1.96975387,-9.54902073,0.796772107,9.782932285
36:09.2,1.42E+12,-1.7747095,-9.51167,0.77972853,9.707184792,-1.96490695,-9.54810163,0.795966782,9.781025886
36:09.2,1.42E+12,-1.9565812,-9.427096,0.8228389,9.663095407,-1.965631442,-9.54415883,0.795514722,9.777281743
36:09.2,1.42E+12,-1.979783,-9.56466,0.7623646,9.797114954,-1.966263128,-9.54361695,0.792038949,9.776578568
36:09.2,1.42E+12,-1.995201,-9.480086,0.83915496,9.724044356,-1.966879846,-9.54182667,0.793200534,9.775053278
36:09.2,1.42E+12,-1.9868184,-9.5528345,0.7518864,9.786185544,-1.9659877,-9.54122792,0.791934166,9.774185262
36:09.3,1.42E+12,-1.9160156,-9.508078,0.70937485,9.725115717,-1.96554462,-9.54000646,0.791955122,9.772905167
36:09.3,1.42E+12,-2.083667,-9.452992,0.7607181,9.709758903,-1.966293062,-9.53757552,0.79298498,9.770772134
36:09.3,1.42E+12,-1.8841319,-9.496402,0.7662566,9.711784241,-1.962344274,-9.5362882,0.794278292,9.768810516
36:09.3,1.42E+12,-2.0022364,-9.53113,0.74634796,9.767723632,-1.962772386,-9.53418956,0.793886107,9.76681852
36:09.3,1.42E+12,-1.9158659,-9.548793,0.80757064,9.77252067,-1.959991166,-9.53602474,0.794694426,9.76810741
36:09.4,1.42E+12,-1.9600241,-9.519903,0.68437684,9.743645071,-1.958943344,-9.53589302,0.793646605,9.767689109
36:09.4,1.42E+12,-2.0715423,-9.451495,0.62854296,9.696242132,-1.961745518,-9.53446498,0.791994042,9.766758346
36:09.4,1.42E+12,-1.9493963,-9.510773,0.6746471,9.731911308,-1.961982028,-9.53350398,0.790344473,9.765745335
36:09.4,1.42E+12,-1.9699036,-9.557026,0.76386154,9.787785787,-1.960700692,-9.53366864,0.788841598,9.765521038
36:09.4,1.42E+12,-1.9643651,-9.532927,0.7515871,9.762187798,-1.961464106,-9.53497394,0.78638371,9.766742562
36:09.5,1.42E+12,-1.9648142,-9.509275,0.66027695,9.732562433,-1.964191436,-9.5355218,0.784132391,9.767644908
36:09.5,1.42E+12,-1.9905607,-9.533674,0.7458989,9.767785676,-1.965802088,-9.5361385,0.78340191,9.768512223
36:09.5,1.42E+12,-1.8639239,-9.618099,0.7858658,9.82851086,-1.961652716,-9.53547986,0.781698452,9.766898915
36:09.5,1.42E+12,-1.8627264,-9.522747,0.85397416,9.740725432,-1.959859444,-9.5353631,0.781123647,9.766382992
36:09.5,1.42E+12,-1.9767892,-9.452543,0.83152086,9.692764912,-1.960607888,-9.5342524,0.782695378,9.765577969
36:09.6,1.42E+12,-2.0686982,-9.4877205,0.7818242,9.742053254,-1.964281252,-9.53343809,0.783779124,9.76561258
36:09.6,1.42E+12,-1.9261944,-9.600884,0.8205936,9.826523918,-1.962835258,-9.53381827,0.78331509,9.765655606
36:09.6,1.42E+12,-1.9240988,-9.524394,0.7393126,9.744886884,-1.960739618,-9.53345902,0.779914162,9.764594309
36:09.6,1.42E+12,-1.9309845,-9.529184,0.8295749,9.758188529,-1.961197666,-9.53337221,0.781928972,9.764760575
36:09.6,1.42E+12,-1.9435583,-9.592503,0.83002394,9.822549181,-1.961110846,-9.53503975,0.783045649,9.766463353
36:09.7,1.42E+12,-2.0429516,-9.471704,0.85786605,9.727423198,-1.962398168,-9.53382129,0.785255055,9.765722925
36:09.7,1.42E+12,-2.0570223,-9.524993,0.8855585,9.784735369,-1.964966824,-9.53228849,0.786847744,9.764887403
36:09.7,1.42E+12,-2.0618124,-9.41587,0.75682616,9.668632999,-1.964972812,-9.52717213,0.786036431,9.759839078
36:09.7,1.42E+12,-2.1100123,-9.426497,0.875679,9.699371697,-1.96764925,-9.52373527,0.786269945,9.757072899
36:09.7,1.42E+12,-1.9580781,-9.529484,0.9605525,9.775878286,-1.967739062,-9.52441785,0.788913447,9.757999118
36:09.8,1.42E+12,-1.9688557,-9.585018,0.82358736,9.819738233,-1.965628448,-9.52568121,0.790045095,9.758887358
36:09.8,1.42E+12,-1.868714,-9.608219,0.8403525,9.824263672,-1.962068852,-9.52785767,0.791158779,9.760392444
36:09.8,1.42E+12,-1.9905607,-9.485924,0.735271,9.720375995,-1.963475928,-9.52484293,0.790164846,9.757651691
36:09.8,1.42E+12,-2.0609143,-9.548943,0.7234456,9.79556296,-1.965607496,-9.52469923,0.789383471,9.757889304
36:09.8,1.42E+12,-1.9709514,-9.592952,0.72299653,9.8199848,-1.965484752,-9.52669609,0.790110959,9.759867347
36:09.9,1.42E+12,-1.9943029,-9.4369755,0.7548802,9.674895078,-1.966098478,-9.52515728,0.787745877,9.758293209
36:09.9,1.42E+12,-1.9242485,-9.479787,0.803529,9.706428422,-1.96767021,-9.52382506,0.785871773,9.757132032
36:09.9,1.42E+12,-1.8964064,-9.648187,0.8801697,9.872110632,-1.967568422,-9.52441484,0.787554275,9.757832054
36:09.9,1.42E+12,-2.0555255,-9.53607,0.71341646,9.781144063,-1.970023318,-9.52467531,0.784569482,9.758346522
36:09.9,1.42E+12,-1.873055,-9.53113,0.73048097,9.740861182,-1.968703064,-9.52483997,0.783569561,9.758171751
36:10.0,1.42E+12,-1.884581,-9.471404,0.6225554,9.677123256,-1.967912708,-9.52458849,0.781479906,9.75762498
36:10.0,1.42E+12,-1.9022442,-9.52185,0.73751634,9.737971594,-1.965427872,-9.52574111,0.780494955,9.75817104
36:10.0,1.42E+12,-2.027833,-9.491313,0.7418573,9.733831794,-1.964706372,-9.52530403,0.778812455,9.757458516
36:10.0,1.42E+12,-1.7459693,-9.52634,0.7220984,9.711899335,-1.959595998,-9.52633989,0.777938273,9.757418912
36:10.0,1.42E+12,-1.8265017,-9.565259,0.5780978,9.755228612,-1.957407548,-9.52577707,0.773857757,9.75616377
36:10.1,1.42E+12,-1.8964064,-9.609866,0.7165599,9.821371588,-1.957874576,-9.52636983,0.770564605,9.756565032
36:10.1,1.42E+12,-1.9688557,-9.557924,0.88031936,9.798227704,-1.95631482,-9.52582495,0.772453676,9.755874966
36:10.1,1.42E+12,-1.9443069,-9.621093,0.8955876,9.85636023,-1.957745848,-9.52726197,0.773690105,9.75766615
36:10.1,1.42E+12,-1.9079324,-9.58906,0.8162526,9.811042046,-1.955754988,-9.52692669,0.775501339,9.757084106
36:10.1,1.42E+12,-1.8992505,-9.55059,0.7345226,9.765267291,-1.953997642,-9.52686683,0.772762036,9.756451629
36:10.2,1.42E+12,-2.0845652,-9.506432,0.7120693,9.758314615,-1.960194756,-9.52676207,0.771408852,9.757474225
36:10.2,1.42E+12,-1.9715501,-9.456285,0.73332506,9.687419751,-1.960494134,-9.52734585,0.769618575,9.757960712
36:10.2,1.42E+12,-2.0073256,-9.468261,0.68781966,9.703113846,-1.961044986,-9.52541787,0.768127676,9.75608069
36:10.2,1.42E+12,-1.8544936,-9.5696,0.80307996,9.780660923,-1.958230838,-9.52720815,0.767406176,9.757213021
36:10.2,1.42E+12,-1.8655705,-9.501492,0.70787793,9.708748358,-1.95580588,-9.5261813,0.766526007,9.755664277
36:10.3,1.42E+12,-1.8823357,-9.498797,0.6655161,9.706350695,-1.955132282,-9.52599568,0.765648832,9.755288977
36:10.3,1.42E+12,-2.0260367,-9.507778,0.7406598,9.74942276,-1.953979676,-9.5270914,0.765247666,9.756082254
36:10.3,1.42E+12,-1.8550923,-9.544601,0.80367875,9.756365882,-1.953398884,-9.52805538,0.765996109,9.756973887
36:10.4,1.42E+12,-1.9136206,-9.586514,0.8384065,9.811529949,-1.951626568,-9.52916306,0.76783728,9.757850013
36:10.4,1.42E+12,-1.8631755,-9.543704,0.90501803,9.765898147,-1.95057276,-9.52906128,0.769786227,9.757717563
36:10.4,1.42E+12,-2.0290306,-9.544751,0.7662566,9.788073662,-1.95195289,-9.52955824,0.771423823,9.758606135
36:10.4,1.42E+12,-2.0862117,-9.479338,0.7244934,9.733191607,-1.952246278,-9.5301151,0.773342831,9.759345124
36:10.4,1.42E+12,-1.975442,-9.526639,0.87088895,9.768196829,-1.952767192,-9.53043242,0.777267668,9.760070834
36:10.4,1.42E+12,-2.0549269,-9.510324,0.8205936,9.764341299,-1.954467658,-9.52949838,0.77840231,9.759601945
36:10.4,1.42E+12,-1.924997,-9.48817,0.8096663,9.715273692,-1.953680296,-9.52860324,0.779563894,9.758663663
36:10.5,1.42E+12,-2.05822,-9.565109,0.927621,9.82792249,-1.955548412,-9.52971992,0.784910775,9.760570864
36:10.5,1.42E+12,-1.9246975,-9.611513,0.8560698,9.839639125,-1.954231148,-9.5312767,0.787114193,9.762007933
36:10.5,1.42E+12,-1.9633173,-9.456136,0.8041278,9.691219964,-1.956219016,-9.52803744,0.787479433,9.759262115
36:10.5,1.42E+12,-1.9032921,-9.48293,0.81789917,9.706566914,-1.95703033,-9.5272411,0.786757933,9.758578944
36:10.5,1.42E+12,-1.9467018,-9.506282,0.71057236,9.729540505,-1.956428582,-9.52831588,0.784338963,9.759314456
36:10.6,1.42E+12,-1.9279907,-9.573043,0.7590715,9.794717452,-1.953614432,-9.53002233,0.783883909,9.76036774
36:10.6,1.42E+12,-1.8574873,-9.54071,0.79739183,9.752499172,-1.95224029,-9.52881885,0.783419873,9.758887245
36:10.6,1.42E+12,-2.0547771,-9.599089,0.8545729,9.853675122,-1.954853856,-9.53031275,0.785725079,9.76106301
36:10.6,1.42E+12,-1.9652632,-9.590556,0.75278455,9.81874271,-1.95553943,-9.53154019,0.784189272,9.762274094
36:10.7,1.42E+12,-1.8940114,-9.590556,0.7640112,9.805598232,-1.954548492,-9.53150125,0.782869018,9.761935075
36:10.7,1.42E+12,-1.988914,-9.602981,0.7336244,9.834186685,-1.95346774,-9.53412679,0.780384185,9.764070344
36:10.7,1.42E+12,-2.0170555,-9.4965515,0.72554123,9.735471912,-1.952668404,-9.53355796,0.777183839,9.763085075
36:10.7,1.42E+12,-1.9664607,-9.532477,0.6123766,9.752440235,-1.95076137,-9.5358901,0.774294848,9.76476122
36:10.7,1.42E+12,-1.9267932,-9.552685,0.7381151,9.772979927,-1.947096988,-9.53841386,0.77154357,9.766233385
36:10.7,1.42E+12,-1.814826,-9.52589,0.7243437,9.724240202,-1.944231946,-9.53834198,0.766819394,9.765200623
36:10.8,1.42E+12,-1.9585272,-9.483679,0.78945833,9.715927162,-1.944025376,-9.5363152,0.766136813,9.763124402
36:10.8,1.42E+12,-1.9594253,-9.621392,0.75143737,9.847598166,-1.945839602,-9.53657866,0.764358511,9.763591091
36:10.8,1.42E+12,-2.0333717,-9.56451,0.8613089,9.816124746,-1.946695822,-9.53815038,0.766879269,9.765506066
36:10.8,1.42E+12,-2.1415966,-9.395811,0.68767,9.661293411,-1.948309468,-9.53508774,0.766163757,9.762820675
36:10.8,1.42E+12,-1.9980451,-9.5158615,0.80727124,9.756817676,-1.948851342,-9.53354593,0.767849251,9.761557333
36:10.9,1.42E+12,-2.0791764,-9.4877205,0.6743477,9.736249771,-1.950548812,-9.53456083,0.766238601,9.762784427
36:10.9,1.42E+12,-2.0363653,-9.473799,0.80936694,9.72392544,-1.952791148,-9.53444107,0.76635536,9.763134367
36:10.9,1.42E+12,-2.069147,-9.569301,0.8650511,9.828591168,-1.95624596,-9.53286335,0.766052988,9.762263978
36:10.9,1.42E+12,-2.0113673,-9.503139,0.83316743,9.749329066,-1.955362796,-9.53220473,0.768448007,9.761627678
36:10.9,1.42E+12,-2.0437002,-9.604178,0.8464897,9.855632419,-1.9587757,-9.53366569,0.770768182,9.763923103
36:11.0,1.42E+12,-1.87066,-9.441167,0.7234456,9.651858717,-1.95849728,-9.53306095,0.772785986,9.763417812
36:11.0,1.42E+12,-1.7898281,-9.380842,0.8322693,9.586258574,-1.956248958,-9.53024079,0.774681045,9.760383552
36:11.0,1.42E+12,-1.8357825,-9.446107,0.74395293,9.651554321,-1.952407948,-9.52933667,0.774722958,9.758738002
36:11.0,1.42E+12,-1.7277073,-9.472752,0.7225475,9.656090195,-1.952042708,-9.52826491,0.77473194,9.757621819
36:11.0,1.42E+12,-1.6774118,-9.724677,0.7081773,9.893663032,-1.94906091,-9.53145327,0.77733353,9.760390508
36:11.1,1.42E+12,-1.8110838,-9.605974,0.7348219,9.802791656,-1.947354458,-9.53137543,0.77769877,9.760018909
36:11.1,1.42E+12,-2.0068767,-9.606873,0.79484713,9.846387403,-1.948114878,-9.53235441,0.775989325,9.760982103
36:11.1,1.42E+12,-1.8628762,-9.665999,0.45864624,9.854552287,-1.946486264,-9.53325253,0.767250498,9.760945944
36:11.1,1.42E+12,-2.0589683,-9.553284,0.6262976,9.792692905,-1.949506982,-9.53253701,0.763451398,9.760578961
36:11.1,1.42E+12,-2.1950355,-9.503886,0.7972421,9.786604361,-1.955422682,-9.53160293,0.764705788,9.761005703
36:11.2,1.42E+12,-1.9064355,-9.4193125,0.8267308,9.645798469,-1.951860088,-9.52986054,0.766999018,9.75875538
36:11.2,1.42E+12,-1.7892293,-9.406589,0.7044351,9.601119045,-1.948213672,-9.52886662,0.766421219,9.757029366
36:11.2,1.42E+12,-1.6823516,-9.485774,0.73721695,9.661972061,-1.941714192,-9.52921688,0.767409164,9.75620653
36:11.2,1.42E+12,-1.9154168,-9.536369,0.83795744,9.762854495,-1.942932656,-9.52855226,0.768106714,9.755850401
36:11.2,1.42E+12,-2.0389102,-9.470955,0.7861652,9.719783904,-1.94639945,-9.52794152,0.769672459,9.756071112
36:11.3,1.42E+12,-1.9815793,-9.448801,0.7710466,9.685092138,-1.948384322,-9.5269416,0.771783069,9.755645941
36:11.3,1.42E+12,-1.9122734,-9.540859,0.8611592,9.768642443,-1.946109056,-9.52760322,0.774193057,9.756030335
36:11.3,1.42E+12,-1.7703685,-9.595047,0.9630972,9.804421848,-1.94441458,-9.52861214,0.777381426,9.756991454
36:11.3,1.42E+12,-1.7488133,-9.608219,0.9523196,9.8123969,-1.941118434,-9.52904624,0.779659688,9.757008793
36:11.3,1.42E+12,-1.8996996,-9.554781,0.93660235,9.786721744,-1.941848916,-9.52926778,0.780291375,9.757425265
36:11.4,1.42E+12,-1.8983524,-9.534573,0.805475,9.755030195,-1.939235352,-9.52906422,0.781075743,9.756764396
36:11.4,1.42E+12,-2.0056791,-9.571546,0.8111632,9.813013157,-1.9376247,-9.53090838,0.782809139,9.758360827
36:11.4,1.42E+12,-2.0748353,-9.424552,0.7981403,9.683189034,-1.939612566,-9.52886664,0.781354166,9.756660671
36:11.4,1.42E+12,-1.9748433,-9.5793295,0.7792795,9.811770292,-1.938010894,-9.53024675,0.780527884,9.757609251
36:11.4,1.42E+12,-2.0540285,-9.605974,0.868494,9.861442663,-1.940591524,-9.53260283,0.781704438,9.76053263
36:11.5,1.42E+12,-2.0227437,-9.504635,0.9262738,9.761534803,-1.939881998,-9.53139335,0.781677494,9.759204876
36:11.5,1.42E+12,-1.9300864,-9.543405,0.86325485,9.774815673,-1.939989776,-9.53003119,0.781821195,9.757908407
36:11.5,1.42E+12,-1.9229013,-9.489816,0.8529263,9.720166686,-1.939181456,-9.53070479,0.782797165,9.758487342
36:11.5,1.42E+12,-2.011517,-9.432934,0.8027806,9.678372858,-1.941345954,-9.52970487,0.782494793,9.757923461
36:11.5,1.42E+12,-1.9746937,-9.604926,0.7541318,9.834771652,-1.941905792,-9.53167775,0.783365982,9.760028084
36:11.6,1.42E+12,-1.9833755,-9.640103,0.69994444,9.866878252,-1.943013488,-9.53301895,0.782183441,9.7614713
