time,time_milisec,ax,ay,az,resultant,MA_x,MA_y,MA_z,MA_R
31:46.0,1.42E+12,7.4303985,-16.25844,-3.2434552,18.16776527,0,0,0,0
31:46.1,1.42E+12,6.0146427,-18.05665,-4.3436675,19.5214237,0,0,0,0
31:46.1,1.42E+12,2.1448896,-14.416969,-10.411899,17.91248691,0,0,0,0
31:46.1,1.42E+12,-1.5295193,-11.546838,-8.3217945,14.31506761,0,0,0,0
31:46.1,1.42E+12,-0.97402453,-7.944729,-6.753805,10.47288521,0,0,0,0
31:46.2,1.42E+12,1.8188677,-4.11165,-10.452314,11.37826056,0,0,0,0
31:46.2,1.42E+12,4.0002813,-1.9196081,-4.37121,6.228532941,0,0,0,0
31:46.2,1.42E+12,2.8942313,-2.1064196,0.36119887,3.597783064,0,0,0,0
31:46.3,1.42E+12,1.5690372,-1.5543677,-2.1960833,3.114597653,0,0,0,0
31:46.3,1.42E+12,-0.36119887,-4.7427373,0.44801834,4.777524689,0,0,0,0
31:46.3,1.42E+12,1.0508149,-15.440541,2.1656964,15.62705216,0,0,0,0
31:46.3,1.42E+12,-4.8966174,-19.017952,-6.1204724,20.56986978,0,0,0,0
31:46.3,1.42E+12,-7.2769675,-17.71596,-7.8794646,20.70979133,0,0,0,0
31:46.3,1.42E+12,-3.530259,-18.55766,1.0142908,18.91767055,0,0,0,0
31:46.3,1.42E+12,-3.9761815,-18.328337,6.145171,19.7357818,0,0,0,0
31:46.4,1.42E+12,1.0886861,-13.404176,3.533552,13.90478915,0,0,0,0
31:46.4,1.42E+12,3.2708483,-8.821755,1.6151413,9.546229167,0,0,0,0
31:46.4,1.42E+12,1.7265097,-4.778064,2.6273365,5.719582888,0,0,0,0
31:46.4,1.42E+12,-0.89169574,-1.459465,3.2063324,3.63396847,0,0,0,0
31:46.4,1.42E+12,-5.317692,1.3247452,4.023034,6.798352787,0,0,0,0
31:46.5,1.42E+12,-7.0964427,4.455934,3.8025427,9.201857301,0,0,0,0
31:46.5,1.42E+12,-5.9213862,5.626799,0.7006929,8.198454248,0,0,0,0
31:46.5,1.42E+12,-2.0698957,4.110003,-5.6013517,7.249257461,0,0,0,0
31:46.5,1.42E+12,3.2717464,-5.713768,-17.428408,18.63064343,0,0,0,0
31:46.5,1.42E+12,-1.2223581,-7.2625976,-8.947194,11.58843232,0,0,0,0
31:46.6,1.42E+12,-4.400549,-2.645299,12.885205,13.87050634,0,0,0,0
31:46.6,1.42E+12,-9.3277025,-16.461119,12.907958,22.90392657,0,0,0,0
31:46.6,1.42E+12,-3.8823266,-18.870808,-0.057929534,19.2661156,0,0,0,0
31:46.6,1.42E+12,0.51837206,-2.905009,1.5688875,3.342034541,0,0,0,0
31:46.6,1.42E+12,-2.3833437,-4.1082067,8.0105915,9.312747482,0,0,0,0
31:46.7,1.42E+12,-2.167343,-15.496076,14.695391,21.46579287,0,0,0,0
31:46.7,1.42E+12,-1.8679656,-19.025436,5.7404127,19.96018157,0,0,0,0
31:46.7,1.42E+12,3.3009357,-17.442778,-10.212363,20.48021091,0,0,0,0
31:46.7,1.42E+12,6.9344797,-18.958376,-8.953182,22.08317226,0,0,0,0
31:46.7,1.42E+12,4.615352,-17.343084,-5.7598724,18.84834653,0,0,0,0
31:46.8,1.42E+12,-1.5006294,-12.726235,-11.873309,17.46952811,0,0,0,0
31:46.8,1.42E+12,-0.7171587,-9.240435,-6.221812,11.16292525,0,0,0,0
31:46.8,1.42E+12,1.3786331,-6.6136966,-8.164771,10.59740994,0,0,0,0
31:46.9,1.42E+12,5.902825,-3.9766304,-8.33362,10.95929535,0,0,0,0
31:46.9,1.42E+12,5.282515,-2.8139982,0.7032376,6.026449512,0,0,0,0
31:46.9,1.42E+12,1.3819263,-2.4728577,1.4087205,3.163738129,0,0,0,0
31:46.9,1.42E+12,-1.0823991,-1.1716136,-2.2544618,2.761677796,0,0,0,0
31:46.9,1.42E+12,-2.1149518,-6.6547112,-1.3136683,7.105204197,0,0,0,0
31:46.9,1.42E+12,1.2332854,-16.629519,-2.0207977,16.79718781,0,0,0,0
31:46.9,1.42E+12,-3.8637652,-19.179615,-7.4446187,20.93343404,0,0,0,0
31:47.0,1.42E+12,-6.6060624,-18.597326,-5.942792,20.61109826,0,0,0,0
31:47.0,1.42E+12,-3.3057258,-19.33634,4.5923004,20.14723531,0,0,0,0
31:47.0,1.42E+12,-2.0228934,-18.449284,6.2617784,19.58770141,0,0,0,0
31:47.0,1.42E+12,2.3388863,-12.851376,3.3486865,13.48487877,0,0,0,0
31:47.0,1.42E+12,3.1436129,-7.894583,2.8246262,8.954622046,-0.359905552,-9.79011231,-1.400670282,13.21626962
31:47.1,1.42E+12,0.51208514,-3.4727783,3.0660741,4.660818673,-0.498271819,-9.534399076,-1.274479696,12.94613069
31:47.1,1.42E+12,-2.7777736,0.35610947,3.133883,4.202863641,-0.674120145,-9.166143887,-1.124928686,12.63975949
31:47.1,1.42E+12,-6.8472114,2.9692254,1.2296928,7.563910881,-0.853962165,-8.818419999,-0.89209685,12.43278797
31:47.1,1.42E+12,-8.283923,5.5896764,-0.003143463,9.993391437,-0.989050239,-8.475689711,-0.72572383,12.34635444
31:47.2,1.42E+12,-7.747439,3.6832407,0.9419911,8.62997221,-1.124518528,-8.243130317,-0.571807908,12.30949618
31:47.2,1.42E+12,-3.103646,-0.5402266,-2.2797592,3.888671403,-1.222968802,-8.171701849,-0.408356812,12.1597044
31:47.2,1.42E+12,4.1896377,-11.052567,-16.57129,20.35485086,-1.219181674,-8.354361027,-0.652358412,12.44223076
31:47.2,1.42E+12,4.030219,-17.159716,-14.142441,22.59883085,-1.19646192,-8.655426955,-0.942431209,12.82225171
31:47.2,1.42E+12,-2.8620484,-1.3792319,14.173427,14.52513802,-1.285083632,-8.651924239,-0.615041003,13.05046252
31:47.2,1.42E+12,-7.306456,-9.080866,12.3967705,17.01547371,-1.423988775,-8.738686813,-0.37606596,13.2952215
31:47.3,1.42E+12,-11.967913,-18.055155,9.033714,23.46971564,-1.684363333,-8.790979093,-0.238705608,13.45207477
31:47.3,1.42E+12,-4.6643004,-7.561376,7.705826,11.76052123,-1.679716993,-8.561847573,0.03782036,13.2758878
31:47.3,1.42E+12,-4.3108854,-11.147319,11.070978,16.29150109,-1.620395351,-8.430474753,0.416829212,13.187522
31:47.3,1.42E+12,-2.0540285,-18.113981,11.055261,21.32027525,-1.590870741,-8.421601173,0.617648616,13.23557409
31:47.3,1.42E+12,2.9175828,-19.381546,-7.188651,20.87662132,-1.452995455,-8.442665353,0.350972176,13.25839088
31:47.4,1.42E+12,6.5949855,-17.556242,-9.23774,20.9057721,-1.342869467,-8.525706673,0.095546336,13.39841054
31:47.4,1.42E+12,5.753735,-17.944683,-5.552404,19.64551614,-1.293211733,-8.708165233,-0.04780457,13.60039628
31:47.4,1.42E+12,4.506828,-15.862663,-8.991801,18.7826532,-1.237605367,-8.929857213,-0.28018732,13.86165769
31:47.4,1.42E+12,-0.2363585,-13.239668,-10.458451,16.87376281,-1.224498622,-9.165461273,-0.553482988,14.12645357
31:47.4,1.42E+12,-1.0280621,-8.705148,-6.3156667,10.80389556,-1.138706024,-9.366059137,-0.760257002,14.20656443
31:47.5,1.42E+12,0.59950334,-5.1471963,-6.824309,8.568793809,-0.984787103,-9.558121743,-0.972794036,14.19390316
31:47.5,1.42E+12,3.2698004,-2.4619303,-6.2150755,7.441764504,-0.800963371,-9.719896329,-1.111109404,14.17876936
31:47.5,1.42E+12,2.3345454,-1.963467,-1.8410215,3.562957346,-0.712874549,-9.841365729,-1.0359028,14.10504336
31:47.5,1.42E+12,0.67509615,-1.2844789,-2.7358608,3.096865379,-0.764807554,-9.752779947,-0.742051856,13.7943678
31:47.5,1.42E+12,-1.3388159,-2.174079,-1.5884967,3.007053255,-0.76713671,-9.651009575,-0.59487791,13.62274022
31:47.6,1.42E+12,-0.9994716,-9.26678,0.45774812,9.331756983,-0.699115162,-9.783439195,-0.843427048,13.53196523
31:47.6,1.42E+12,2.092349,-18.107395,-1.719175,18.30877496,-0.470714132,-9.816364715,-1.135969708,13.4400622
31:47.6,1.42E+12,-5.5146823,-19.380648,-7.3759117,21.45752342,-0.503361246,-9.826561515,-1.282329351,13.48389036
31:47.6,1.42E+12,-6.70845,-18.320852,-4.0926394,19.93505999,-0.647897687,-10.13487837,-1.395559889,13.81575086
31:47.6,1.42E+12,-3.290158,-19.409687,5.1361194,20.34553542,-0.666033973,-10.44090798,-1.453049331,14.03640662
31:47.7,1.42E+12,-1.1729608,-14.687457,5.8011866,15.83511908,-0.646146329,-10.4247356,-1.630933419,13.92379315
31:47.7,1.42E+12,3.15454,-9.376801,2.722838,10.26106068,-0.545696217,-10.2317629,-1.691284913,13.72981073
31:47.7,1.42E+12,3.161276,-6.249055,2.6343718,7.482263636,-0.548489411,-10.00788844,-1.434350217,13.46985178
31:47.7,1.42E+12,-0.063767396,-2.6110203,4.087999,4.851105968,-0.688454353,-9.680941327,-1.173526597,13.12521046
31:47.7,1.42E+12,-4.562213,1.2534933,4.473747,6.511485632,-0.872005653,-9.309009781,-0.968854209,12.87847324
31:47.8,1.42E+12,-7.01127,4.8428793,3.28432,9.132258471,-0.982218465,-8.957627495,-0.665701629,12.71172785
31:47.8,1.42E+12,-6.767876,5.209317,4.0124063,9.436129157,-1.103232811,-8.668632455,-0.461017263,12.67719193
31:47.8,1.42E+12,-4.4545865,2.312541,-0.75712556,5.075867007,-1.219897203,-8.490107703,-0.312864354,12.56676107
31:47.8,1.42E+12,1.6122972,-3.53445,-14.4609785,14.97370155,-1.305707759,-8.481264095,-0.435411524,12.64704919
31:47.8,1.42E+12,3.6453695,-17.293987,-18.852547,25.84161825,-1.338450669,-8.770863871,-0.826527216,13.04335257
31:47.9,1.42E+12,0.46328658,-7.5088353,6.569838,9.98799346,-1.356823464,-8.871583423,-0.723304866,13.17983767
31:47.9,1.42E+12,-3.5929785,-6.4358664,16.312777,17.900742,-1.407035052,-8.976868479,-0.35196009,13.48261896
31:47.9,1.42E+12,-13.289215,-17.425713,11.944262,24.95844754,-1.630520316,-9.192288515,-0.086801484,13.83968382
31:47.9,1.42E+12,-6.5378046,-6.606212,4.9927177,10.55045762,-1.785942116,-8.991822375,0.053468824,13.71474922
31:47.9,1.42E+12,-6.548582,-4.090394,9.677975,12.38056741,-1.839638452,-8.690037955,0.395920698,13.54369189
31:48.0,1.42E+12,-6.105803,-15.588882,15.16676,22.590367,-1.829633264,-8.629869075,0.818111738,13.58327726
31:48.0,1.42E+12,-2.3402336,-19.03816,4.059259,19.60626974,-1.81032342,-8.623905475,0.80745091,13.57245795
31:48.0,1.42E+12,5.1618657,-18.025517,-13.914016,23.34874647,-1.666628238,-8.615430135,0.403935022,13.64767885
31:48.0,1.42E+12,7.8451858,-17.642612,-5.23686,20.00583418,-1.556502248,-8.711254855,0.232224092,13.77809796
31:48.0,1.42E+12,6.421646,-19.151625,-4.3527985,20.66323141,-1.490941586,-8.936395695,0.088675598,14.01227015
31:48.1,1.42E+12,4.0430923,-14.704822,-12.52206,19.73272338,-1.420321443,-9.161036569,-0.223087084,14.31370824
31:48.1,1.42E+12,0.21165985,-11.900702,-10.616822,15.94955853,-1.360532774,-9.406172798,-0.498101184,14.54864214
31:48.1,1.42E+12,-0.3598517,-8.538693,-5.6479053,10.24390578,-1.23078558,-9.636331166,-0.635653146,14.60224204
31:48.2,1.42E+12,1.2112812,-4.484225,-7.674092,8.970349158,-1.040881496,-9.837809194,-0.789072117,14.58178119
31:48.2,1.42E+12,3.085384,-0.8747809,-3.5947747,4.817389458,-0.824225036,-9.928969626,-0.879807433,14.50552954
31:48.2,1.42E+12,1.4602134,-1.1952645,-1.7437239,2.569329375,-0.732947848,-9.942070384,-0.869086727,14.4791427
31:48.2,1.42E+12,0.8918454,-1.5612533,-2.191892,2.835011574,-0.798903694,-9.75224411,-0.581498767,14.12874591
31:48.2,1.42E+12,-0.123193815,-3.7336857,0.69725007,3.800229372,-0.88197195,-9.483723504,-0.284704945,13.75277388
31:48.2,1.42E+12,2.2311103,-14.217734,0.62734544,14.40539397,-0.780108776,-9.740493546,-0.555626577,13.750379
31:48.2,1.42E+12,0.13606705,-18.851648,-3.7537441,19.22221999,-0.631258315,-9.935909186,-0.878636869,13.79451393
31:48.3,1.42E+12,-5.9210873,-18.669327,-7.6550813,21.02863084,-0.510321801,-9.948192626,-1.212412775,13.74569223
31:48.3,1.42E+12,-3.5148408,-18.604961,1.2963043,18.97838467,-0.487332609,-10.16906433,-1.340603209,13.8900495
31:48.3,1.42E+12,-4.497547,-19.132315,5.96779,20.53991051,-0.491065841,-10.32876425,-1.442666969,13.97501769
31:48.3,1.42E+12,-1.237776,-12.862303,3.8169127,13.47366878,-0.474740791,-10.22373069,-1.587433935,13.81808556
31:48.3,1.42E+12,2.1637504,-7.648794,1.3340259,8.060117279,-0.489817439,-9.989075646,-1.416980397,13.56175548
31:48.4,1.42E+12,1.8070422,-4.711153,2.3884332,5.582560098,-0.585576305,-9.732173866,-1.184456933,13.25529124
31:48.4,1.42E+12,-1.3355228,-0.7219487,3.1220577,3.471609909,-0.727361461,-9.38771918,-1.010967699,12.93181311
31:48.4,1.42E+12,-4.546645,1.5998731,2.891088,5.620495042,-0.908430921,-9.038468458,-0.773309919,12.66856995
31:48.4,1.42E+12,-6.03979,4.567302,2.278412,7.907621137,-1.024499551,-8.682329058,-0.518572659,12.48924711
31:48.5,1.42E+12,-6.3527894,3.6306999,2.068848,7.603949432,-1.130994097,-8.4356121,-0.350882365,12.42524819
31:48.5,1.42E+12,-3.6051033,0.2535727,-1.3477973,3.857152639,-1.21508623,-8.32759672,-0.241352131,12.33101537
31:48.5,1.42E+12,3.7378771,-9.320218,-15.752493,18.68098564,-1.205724696,-8.464762474,-0.432100481,12.55579979
31:48.5,1.42E+12,5.261858,-18.185383,-19.02828,26.8415861,-1.147178444,-8.789200794,-0.775845651,13.02137237
31:48.5,1.42E+12,-2.9307554,-8.40083,10.960208,14.11699087,-1.219295475,-8.931527816,-0.501924275,13.24177488
31:48.5,1.42E+12,-8.671318,-9.857601,14.635815,19.66141231,-1.365945517,-9.085198256,-0.177438041,13.57486206
31:48.6,1.42E+12,-11.795172,-10.413994,14.486725,21.38790674,-1.581859525,-9.108142536,0.103141497,13.81598505
31:48.6,1.42E+12,-10.379116,-0.70458484,9.798325,14.29089436,-1.831288825,-8.760086333,0.333491497,13.73562744
31:48.6,1.42E+12,-10.634036,-9.8149395,13.076807,19.50432363,-1.933675899,-8.568772163,0.742545871,13.69656344
31:48.6,1.42E+12,-5.0581317,-18.131346,12.504397,22.59845898,-1.900669533,-8.564982043,1.074486599,13.74983142
31:48.6,1.42E+12,1.4882053,-19.383942,-8.214618,21.10525791,-1.805102267,-8.564467143,0.807471851,13.76502587
31:48.7,1.42E+12,7.5260496,-16.748522,-12.792249,22.37847283,-1.631122059,-8.605688443,0.435603139,13.89589295
31:48.7,1.42E+12,7.9279637,-17.824783,-2.4286995,19.65894399,-1.535653585,-8.774648083,0.332572389,14.08385062
31:48.7,1.42E+12,6.5517254,-15.03219,-5.777685,17.38601409,-1.467844597,-8.950310783,0.164331253,14.28192562
31:48.7,1.42E+12,2.0751348,-12.33959,-11.342813,16.88878541,-1.425066553,-9.144882177,-0.144284987,14.52267921
31:48.7,1.42E+12,-0.19743942,-10.847941,-7.4616833,13.16789748,-1.337771081,-9.386910863,-0.382993593,14.65580745
31:48.8,1.42E+12,-0.20387603,-7.3546557,-6.5205903,9.831104911,-1.201623202,-9.630861563,-0.579091799,14.66978438
31:48.8,1.42E+12,2.2201831,-2.9292586,-7.505093,8.356805004,-1.02186202,-9.793633075,-0.809441785,14.6481979
31:48.8,1.42E+12,1.5910414,-0.9190887,-1.0759625,2.129279708,-0.900949462,-9.858265669,-0.815818524,14.58926615
31:48.8,1.42E+12,0.37062928,-0.7532337,-1.1605366,1.432331062,-0.92578282,-9.802641343,-0.549809686,14.31843874
31:48.8,1.42E+12,-0.084873505,-0.36524048,-2.2570066,2.287942943,-1.00038768,-9.464066412,-0.217898878,13.84736523
31:48.9,1.42E+12,-0.44143203,-4.8978148,0.8587642,4.992086538,-1.018482052,-9.411846002,-0.332120354,13.7474471
31:48.9,1.42E+12,3.4905913,-16.365019,-0.043858796,16.73320047,-0.876810656,-9.610429054,-0.65925307,13.72409627
31:48.9,1.42E+12,-0.48080018,-19.14369,-5.238656,19.85335116,-0.62064236,-9.644788594,-1.00291143,13.62199434
31:48.9,1.42E+12,-5.240153,-18.19736,-6.877149,20.1469177,-0.594689328,-9.876611554,-1.240308764,13.81392354
31:48.9,1.42E+12,-3.0582902,-19.016306,4.4036922,19.75767035,-0.524883492,-10.17512979,-1.34579442,13.9614656
31:49.0,1.42E+12,-4.3773475,-18.690582,5.7535853,20.0400292,-0.490314382,-10.23716379,-1.534057914,13.91045884
31:49.0,1.42E+12,4.49E-04,-11.126513,3.695066,11.7240268,-0.44350073,-10.07893085,-1.541341774,13.75281398
31:49.0,1.42E+12,3.0596375,-7.8136015,1.904789,8.604764446,-0.485545294,-9.874692544,-1.224965674,13.45793434
31:49.0,1.42E+12,1.1277548,-3.7031493,2.2900877,4.49773802,-0.619893914,-9.59590329,-1.07442672,13.14777242
31:49.0,1.42E+12,-2.0926483,-0.3912863,3.0647268,3.731599152,-0.7901798,-9.220696516,-0.926076214,12.80913977
31:49.1,1.42E+12,-5.5009108,1.8242564,3.0799952,6.563101513,-0.981059862,-8.890114948,-0.61403511,12.54574734
31:49.1,1.42E+12,-6.4797254,3.5938766,4.08261,8.459934674,-1.114887567,-8.580223376,-0.32004647,12.39595486
31:49.1,1.42E+12,-6.190377,3.001708,2.3665786,7.275418379,-1.231498073,-8.349415356,-0.159756792,12.33658511
31:49.2,1.42E+12,-2.7274783,0.3357518,-6.3719497,6.939280231,-1.310273263,-8.25301582,-0.133713946,12.29596373
31:49.2,1.42E+12,0.18815872,-13.98407,-17.64441,22.51476897,-1.368217769,-8.515201602,-0.414706652,12.64991132
31:49.2,1.42E+12,3.6955152,-16.775316,-9.513916,19.63625874,-1.323511733,-8.826802632,-0.570110494,12.99124991
31:49.2,1.42E+12,-0.24040009,0.11121872,14.615158,14.61755811,-1.346156642,-8.793353192,-0.233969494,13.22690084
31:49.2,1.42E+12,-8.654253,-14.588364,11.073972,20.25708061,-1.516777826,-9.010446758,-0.026435055,13.55603787
31:49.2,1.42E+12,-8.174651,-13.209131,11.884236,19.5586586,-1.724893052,-8.990274698,0.198702756,13.65910316
31:49.2,1.42E+12,-6.873257,-3.407963,8.81906,11.68895602,-1.865079533,-8.681400998,0.450158838,13.50843788
31:49.3,1.42E+12,-7.948621,-9.908046,11.363769,17.04362629,-1.905630207,-8.506175378,0.830535844,13.42873779
31:49.3,1.42E+12,-5.0933084,-18.01384,8.855286,20.70884623,-1.937199559,-8.494352958,0.981715478,13.46334702
31:49.3,1.42E+12,2.209256,-19.367924,-11.334879,22.54942957,-1.803063499,-8.499065138,0.635662098,13.5035374
31:49.3,1.42E+12,7.4101906,-16.955242,-8.425828,20.33188957,-1.630104167,-8.580923918,0.390807284,13.64070182
31:49.3,1.42E+12,7.6225986,-18.4174,-4.2737627,20.38552623,-1.520927203,-8.796296038,0.278651512,13.88721
31:49.4,1.42E+12,7.111711,-15.281123,-10.144105,19.67211274,-1.414833827,-9.007695438,0.028000748,14.16900105
31:49.4,1.42E+12,1.7765057,-11.38248,-9.841285,15.15149213,-1.352593257,-9.220906064,-0.231266106,14.40259869
31:49.5,1.42E+12,-0.09759705,-8.77625,-5.5941668,10.40801573,-1.263612298,-9.428428526,-0.400971202,14.49834911
31:49.5,1.42E+12,1.3783337,-5.205126,-6.7993107,8.673163579,-1.115249824,-9.623877086,-0.582525656,14.51365996
31:49.5,1.42E+12,2.9618907,-1.736988,-3.9907012,5.26456265,-0.928956222,-9.731230844,-0.70371664,14.46687222
31:49.5,1.42E+12,1.0702744,-1.8775456,-1.4311738,2.592088582,-0.835448668,-9.77385321,-0.70538417,14.44157094
31:49.5,1.42E+12,-0.24773483,-1.3933026,-3.0609846,3.372282818,-0.915160907,-9.615314902,-0.451554002,14.13539688
31:49.5,1.42E+12,-1.8368303,-2.0857627,-1.565744,3.189969571,-1.057134673,-9.293322496,-0.102303282,13.66236455
31:49.5,1.42E+12,-0.45595184,-10.372829,0.034428407,10.38290224,-1.007638602,-9.332762476,-0.320818874,13.58768278
31:49.5,1.42E+12,3.1415172,-18.315163,-1.1008109,18.61521181,-0.771381898,-9.501913716,-0.635551392,13.56675877
31:49.6,1.42E+12,-3.6486626,-19.40894,-7.9613442,21.29325462,-0.60845171,-9.681812636,-1.084512776,13.56486573
31:49.6,1.42E+12,-6.6868944,-16.610508,-6.398145,19.01472567,-0.534607278,-9.999931099,-1.408442176,13.65934235
31:49.6,1.42E+12,-3.3419504,-19.17707,6.637946,20.56674435,-0.388765566,-10.18717371,-1.537219396,13.68059077
31:49.6,1.42E+12,-2.5062382,-15.817757,6.8662214,17.424915,-0.337727696,-10.14090193,-1.649982908,13.57711989
31:49.6,1.42E+12,2.6734405,-9.230854,3.4274225,10.20309633,-0.314022992,-9.937840169,-1.417142098,13.35907666
31:49.7,1.42E+12,2.6087751,-6.319708,1.9718496,7.115659321,-0.412368482,-9.729263889,-1.121860126,13.05382039
31:49.7,1.42E+12,-0.011376343,-2.545307,1.8175205,3.127634556,-0.571155282,-9.423674369,-1.036935726,12.7231942
31:49.7,1.42E+12,-3.6122882,0.16989669,2.2924829,4.281701621,-0.774435554,-9.119632635,-0.875532368,12.46110795
31:49.7,1.42E+12,-5.823939,2.5280929,0.89962924,6.4123983,-0.93241703,-8.822278977,-0.630683523,12.25158021
31:49.8,1.42E+12,-5.970035,3.4384997,2.9404852,7.490731026,-1.047868942,-8.536550163,-0.422640153,12.13803688
31:49.8,1.42E+12,-5.096751,0.6568341,-1.676813,5.405553036,-1.145726441,-8.376320367,-0.325764607,12.04952584
31:49.8,1.42E+12,-1.7357904,-4.0974293,-15.102544,15.74448254,-1.224845911,-8.399683781,-0.477713627,12.19727939
31:49.8,1.42E+12,1.0395882,-16.888481,-18.000967,24.70498628,-1.235874975,-8.719071627,-0.816213717,12.64879352
31:49.8,1.42E+12,-1.9619701,-3.4030235,11.054512,11.73167214,-1.282526963,-8.772067423,-0.571912745,12.85478034
31:49.8,1.42E+12,-3.0178742,-6.4786777,14.637462,16.28914127,-1.341186977,-8.894336168,-0.234023373,13.13480431
31:49.9,1.42E+12,-10.934761,-17.522562,9.367371,22.67943599,-1.551053556,-9.146831112,-0.063851237,13.4885513
31:49.9,1.42E+12,-4.626579,-8.589588,7.5814342,12.35574359,-1.713396962,-8.991322492,0.088654623,13.40100216
31:49.9,1.42E+12,-4.369863,-7.21784,8.009095,11.63350848,-1.791178219,-8.752805492,0.353609643,13.23660531
31:49.9,1.42E+12,-3.3718882,-15.626305,10.708731,19.24130863,-1.753812923,-8.701384392,0.705327243,13.21849313
31:49.9,1.42E+12,0.34937346,-19.04325,-1.0277628,19.07416391,-1.685659649,-8.701923272,0.596698143,13.204823
31:50.0,1.42E+12,6.4791265,-18.25454,-10.367441,21.97023313,-1.468530169,-8.693202432,0.274277617,13.24342708
31:50.0,1.42E+12,6.8907704,-18.539995,-7.264992,21.07117083,-1.330723741,-8.841472072,0.055076457,13.43036996
31:50.0,1.42E+12,5.7727456,-16.274906,-6.4545774,18.4352577,-1.276461579,-9.010698162,-0.112110871,13.62697982
31:50.0,1.42E+12,0.8731343,-12.70468,-10.2491865,16.34677587,-1.281553989,-9.190728776,-0.362896355,13.86396058
31:50.0,1.42E+12,-1.9208057,-9.543704,-7.7682457,12.45461448,-1.278117137,-9.37377713,-0.579555805,14.03842089
31:50.1,1.42E+12,-0.036673736,-6.954538,-6.443351,9.480702288,-1.168832396,-9.549353018,-0.770022729,14.0967729
31:50.1,1.42E+12,2.8383975,-3.9347177,-8.071515,9.417423116,-0.982469938,-9.699924904,-1.013105229,14.11592267
31:50.1,1.42E+12,3.3070729,-1.0556048,-0.57899594,3.519413155,-0.79252094,-9.78107116,-1.07201672,14.04080257
31:50.1,1.42E+12,1.3403128,-1.1045531,-1.0386901,2.023697872,-0.711165118,-9.809877258,-0.965351528,13.94249092
31:50.1,1.42E+12,0.7590715,-0.18815872,-3.0424232,3.141326499,-0.699746863,-9.533959032,-0.673311792,13.55502207
31:50.2,1.42E+12,-1.1487112,-2.3682253,0.21345611,2.640755953,-0.796631391,-9.245817218,-0.47876435,13.21511201
31:50.2,1.42E+12,0.47571075,-10.44977,-0.05882767,10.46075783,-0.782309174,-9.457036993,-0.772244063,13.13197601
31:50.2,1.42E+12,5.136419,-18.339113,-2.841541,19.25565426,-0.506495734,-9.532051973,-1.050554323,13.11194748
31:50.2,1.42E+12,-3.123854,-19.412231,-7.3334002,20.98504074,-0.405479794,-9.656113973,-1.434907047,13.14047512
31:50.2,1.42E+12,-6.2248054,-19.22542,-3.5121465,20.51097632,-0.392510762,-9.972463113,-1.681531177,13.31691553
31:50.3,1.42E+12,-4.561165,-19.147432,6.4756837,20.72107279,-0.324761642,-10.15725083,-1.779292883,13.39046446
31:50.3,1.42E+12,-1.6254698,-13.375436,5.595963,14.58969644,-0.25540487,-10.06448275,-1.844479343,13.26808146
31:50.3,1.42E+12,2.6210494,-9.952503,3.0005105,10.72032085,-0.247169002,-9.876174333,-1.557771553,13.03149929
31:50.3,1.42E+12,2.2511687,-6.0261683,0.48080018,6.45086302,-0.35034944,-9.657592859,-1.379638989,12.75387876
31:50.3,1.42E+12,-1.6976198,-1.8372793,1.5155983,2.924815621,-0.536753808,-9.325990445,-1.263851769,12.40466455
31:50.4,1.42E+12,-5.2663484,0.9836046,2.4554937,5.893331213,-0.784314996,-9.000695893,-1.011859795,12.12908891
31:50.4,1.42E+12,-7.1308713,3.3554223,2.652035,8.315135233,-0.962462536,-8.705937847,-0.761993395,11.99236178
31:50.5,1.42E+12,-7.2024226,3.2540832,2.7807674,8.378342086,-1.104559047,-8.465331183,-0.594494711,11.9517683
31:50.5,1.42E+12,-4.6830115,1.3418097,-5.8085213,7.580895044,-1.225785951,-8.334392469,-0.574678923,11.92992293
31:50.5,1.42E+12,-0.3713777,-7.2097573,-16.72996,18.22114385,-1.292451319,-8.443847855,-0.829464099,12.18905456
31:50.5,1.42E+12,3.3669484,-17.69605,-17.824633,25.34174557,-1.246517839,-8.760217943,-1.157333283,12.6440477
31:50.5,1.42E+12,2.1406984,-1.196911,9.587263,9.895999061,-1.198749174,-8.756290111,-0.904368331,12.77452202
31:50.5,1.42E+12,1.4459931,-3.7606297,16.03316,16.53164999,-1.133092706,-8.789787451,-0.552390251,13.04135563
31:50.5,1.42E+12,-11.86837,-16.567997,8.129745,21.94195718,-1.361341069,-8.913690811,-0.39048392,13.27253673
31:50.5,1.42E+12,-5.1226473,-11.606265,5.7684045,13.93633356,-1.526624359,-8.779512851,-0.253099612,13.17895916
31:50.6,1.42E+12,-6.443351,-5.105134,6.2104354,10.30284782,-1.582518127,-8.493436731,0.03033598,12.95915103
31:50.6,1.42E+12,-7.4414754,-10.648257,8.797356,15.68930865,-1.597609747,-8.374191711,0.334246,12.89264269
31:50.6,1.42E+12,-5.9062676,-17.90786,7.300169,20.22048254,-1.648896091,-8.348807511,0.34749046,12.88571745
31:50.6,1.42E+12,0.026494903,-19.338436,-4.7250743,19.90733875,-1.598241429,-8.419221091,0.115664546,12.93536593
31:50.6,1.42E+12,6.6975226,-18.123562,-12.039165,22.7653641,-1.517759787,-8.597075251,-0.193667204,13.18661128
31:50.7,1.42E+12,7.329059,-18.77426,-6.3301864,21.12484803,-1.423354109,-8.846166291,-0.359707924,13.46679506
31:50.7,1.42E+12,6.401438,-14.1553135,-9.727821,18.3298066,-1.295097822,-9.078366421,-0.590614754,13.7708385
31:50.8,1.42E+12,3.048411,-10.259067,-9.205257,14.11658676,-1.161883838,-9.286945694,-0.820569552,13.9675362
31:50.8,1.42E+12,1.0333012,-8.548274,-6.794371,10.96832608,-1.024739034,-9.508473032,-0.974449556,14.05865476
31:50.8,1.42E+12,2.5345294,-4.946763,-6.6901875,8.697868259,-0.854647746,-9.676178286,-1.16706301,14.0827975
31:50.8,1.42E+12,2.5602758,-1.7857864,-2.8880942,4.252661913,-0.70150721,-9.725030696,-1.191288634,14.05973968
31:50.8,1.42E+12,0.69635195,-1.0820998,-1.3692027,1.878978991,-0.652864363,-9.664724106,-0.916621808,13.78242961
31:50.8,1.42E+12,0.105680235,-2.0061283,-2.0727396,2.886514943,-0.671542523,-9.367077052,-0.59805726,13.34606018
31:50.8,1.42E+12,-0.22004242,-4.4560833,1.4542259,4.692533432,-0.636703969,-9.388138248,-0.790062982,13.20527741
31:50.8,1.42E+12,3.3928444,-15.065271,0.6119275,15.45471574,-0.508489597,-9.559870114,-1.070573672,13.1885889
31:50.9,1.42E+12,1.8456619,-18.966908,-6.8960094,20.2658583,-0.252881139,-9.588757034,-1.39584128,13.14031734
31:50.9,1.42E+12,-5.0278945,-18.985918,-7.2407427,20.93258609,-0.260907449,-9.796683634,-1.692284818,13.31185419
31:50.9,1.42E+12,-2.158212,-18.958376,6.6901875,20.21970594,-0.216674429,-10.03149435,-1.718662968,13.48357814
31:50.9,1.42E+12,-2.4272027,-19.135307,4.9850836,19.92240812,-0.197780719,-10.10167439,-1.833135916,13.49720013
31:50.9,1.42E+12,0.7074289,-12.233161,4.305347,12.98794428,-0.19061961,-9.965472614,-1.72647372,13.37547574
31:51.0,1.42E+12,2.7363098,-8.06957,2.607278,8.910850121,-0.265475944,-9.761773214,-1.46697934,13.11428808
31:51.0,1.42E+12,0.74799454,-5.107978,2.5406666,5.753774574,-0.388331462,-9.493132874,-1.270866168,12.80794015
31:51.0,1.42E+12,-2.7045758,-1.7272582,2.7701395,4.239318813,-0.55787789,-9.202179918,-1.08637183,12.52402137
31:51.1,1.42E+12,-6.634653,1.5117064,2.0323238,7.101705197,-0.708033636,-8.91785219,-0.840741624,12.33911996
31:51.1,1.42E+12,-7.058422,3.5576518,3.1912138,8.52420395,-0.810785962,-8.655825074,-0.621552434,12.26051175
31:51.1,1.42E+12,-6.159541,3.4167948,2.1350102,7.360210635,-0.933243307,-8.448398418,-0.44998521,12.21810192
31:51.1,1.42E+12,-3.5223253,-0.67225206,-6.981033,7.848153929,-1.060457763,-8.383149106,-0.42817557,12.18671653
31:51.1,1.42E+12,2.2600002,-13.827645,-17.400415,22.3402285,-1.081399217,-8.63858991,-0.764603952,12.56313284
31:51.1,1.42E+12,3.8278399,-17.118551,-15.521972,23.42282565,-1.031648675,-8.958869868,-1.05426959,12.9911154
31:51.1,1.42E+12,-1.4091697,1.0464739,12.247381,12.37251827,-1.075013499,-8.934177215,-0.748473506,13.17573923
31:51.2,1.42E+12,-3.0852342,-5.9707837,13.197605,14.8103243,-1.113743959,-9.006228383,-0.488790528,13.4191306
31:51.2,1.42E+12,-12.563973,-17.490528,9.150172,23.39866737,-1.374537634,-9.147043543,-0.304610534,13.67788879
31:51.2,1.42E+12,-4.2092466,-9.919272,5.8212447,12.24731006,-1.561450946,-8.978646723,-0.13135482,13.53772191
31:51.2,1.42E+12,-4.6879516,-6.5797176,9.3289,12.34090552,-1.592732898,-8.721996455,0.201891184,13.3648392
31:51.2,1.42E+12,-4.109105,-14.785054,10.334359,18.50085246,-1.55041889,-8.633189135,0.478821294,13.32463672
31:51.3,1.42E+12,-2.3920257,-18.928738,1.9296373,19.176611,-1.507036104,-8.628815255,0.387900366,13.29374749
31:51.3,1.42E+12,4.133804,-18.995798,-9.000184,21.42269799,-1.391850628,-8.741222495,0.095977426,13.43040752
31:51.3,1.42E+12,7.4625816,-18.804346,-7.695946,21.6453491,-1.295019984,-8.918259355,-0.117951704,13.64890808
31:51.3,1.42E+12,7.167994,-17.674644,-7.788454,20.60177648,-1.196683478,-9.151228869,-0.283336788,13.93192635
31:51.3,1.42E+12,4.107758,-12.895234,-10.308313,17.01240878,-1.080575922,-9.372387963,-0.519815014,14.21367822
31:51.4,1.42E+12,-1.1421249,-9.542806,-7.7483373,12.34529573,-0.998091452,-9.582916175,-0.723891634,14.34271751
31:51.4,1.42E+12,-0.18875748,-5.8880057,-5.990842,8.402049058,-0.859249175,-9.767784735,-0.896749174,14.34445578
31:51.5,1.42E+12,3.4000297,-2.7831624,-7.373068,8.583025494,-0.647200129,-9.888529647,-1.099825882,14.34854945
31:51.5,1.42E+12,3.403173,-1.1322455,-1.7142352,3.975194166,-0.485476439,-9.938010751,-1.01794016,14.27643543
31:51.5,1.42E+12,1.5582596,-1.0729687,-1.8047969,2.614713495,-0.446883693,-9.815274979,-0.719436898,13.96430683
31:51.5,1.42E+12,0.16166382,-1.6705261,-1.4438974,2.21396304,-0.510989385,-9.494764501,-0.391822186,13.50175118
31:51.5,1.42E+12,-0.060623933,-4.4445577,3.100802,5.419662485,-0.555015832,-9.559717435,-0.521551406,13.41222444
31:51.5,1.42E+12,3.2939003,-14.895076,2.0498374,15.3920402,-0.518057688,-9.782406361,-0.801217858,13.38943225
31:51.5,1.42E+12,1.3615686,-18.943707,-8.457263,20.79045938,-0.253458916,-9.829920561,-1.132958018,13.36640229
31:51.5,1.42E+12,-3.9700441,-18.910175,-6.4454465,20.36908808,-0.230406852,-9.975998761,-1.377235038,13.49505738
31:51.6,1.42E+12,-2.1287234,-19.253712,5.652246,20.17881993,-0.1441143,-10.25897032,-1.388398826,13.69257683
31:51.6,1.42E+12,-3.5440302,-17.35536,5.2355127,18.47103852,-0.066165396,-10.39311238,-1.459635692,13.74821142
31:51.6,1.42E+12,0.07903565,-11.899505,3.1085856,12.29909632,0.053540669,-10.27294528,-1.54346736,13.5897837
31:51.6,1.42E+12,2.3682253,-7.2778654,1.7539028,7.851878176,0.100375277,-10.03173387,-1.413887818,13.34867449
31:51.6,1.42E+12,-0.019309845,-3.4826577,2.7550209,4.440655096,-0.033961372,-9.738915783,-1.1180041,12.98218031
31:51.7,1.42E+12,-3.1644197,-0.19414628,3.3311727,4.598690724,-0.243830946,-9.367313509,-0.924776918,12.65165716
31:51.7,1.42E+12,-6.6012726,2.9186306,2.4625292,7.626221514,-0.503885158,-9.025834627,-0.680969914,12.43758546
31:51.7,1.42E+12,-6.796467,4.4228525,2.6897566,8.543323621,-0.700782718,-8.732196237,-0.443069642,12.3261202
31:51.8,1.42E+12,-5.2283278,2.703079,0.72898406,5.930722167,-0.826015298,-8.507169177,-0.292602541,12.22536812
31:51.8,1.42E+12,-2.648143,-1.4970369,-8.19905,8.745181629,-0.929668746,-8.438174655,-0.322779791,12.22631439
31:51.8,1.42E+12,3.137775,-14.5718975,-17.687368,23.1306899,-0.918118762,-8.693896877,-0.618765267,12.60387495
31:51.8,1.42E+12,4.9029045,-13.52243,-6.615044,15.83203691,-0.833987711,-8.942703481,-0.723682093,12.8829361
31:51.8,1.42E+12,-0.4897815,0.7348219,14.704672,14.73116519,-0.845896945,-8.887884477,-0.388133861,13.11982911
31:51.8,1.42E+12,-3.891308,-11.62782,12.757371,17.69460344,-0.919322257,-9.031319211,-0.162070959,13.37987051
31:51.8,1.42E+12,-9.778565,-18.318756,5.716313,21.53772015,-1.182750445,-9.096388911,-0.059983249,13.5015306
31:51.9,1.42E+12,-4.6378055,-6.4295797,2.4662714,8.302483339,-1.312419793,-8.845642345,0.127262367,13.2622631
31:51.9,1.42E+12,-6.971303,-6.5277753,8.005203,12.46170899,-1.351287963,-8.596479491,0.432181281,13.09284556
31:51.9,1.42E+12,-6.013894,-15.401024,9.495055,19.06605703,-1.428401603,-8.525332451,0.488278631,13.06977258
31:51.9,1.42E+12,-4.5339217,-18.861677,2.0378623,19.5056963,-1.470535983,-8.519859851,0.429334205,13.06143834
31:51.9,1.42E+12,2.6800268,-18.50512,-8.020621,20.3458195,-1.431084025,-8.645299031,0.182814845,13.20859585
31:52.0,1.42E+12,6.628965,-18.465601,-7.9101505,21.15400856,-1.353230921,-8.853219651,-0.027533725,13.45345901
31:52.0,1.42E+12,7.3019657,-16.728613,-7.551197,19.75312057,-1.222151498,-9.085632351,-0.229370997,13.73344593
31:52.0,1.42E+12,5.6247034,-11.793674,-9.827663,16.34964816,-1.055565914,-9.286960667,-0.481327047,13.97565252
31:52.0,1.42E+12,1.4168037,-8.75679,-6.445147,10.96488138,-0.89453678,-9.492330595,-0.650876463,14.05291604
31:52.1,1.42E+12,2.0628603,-6.668932,-6.9980974,9.884503723,-0.712111134,-9.696862271,-0.854662687,14.08012204
31:52.1,1.42E+12,5.3322115,-4.2505608,-8.98297,11.27800943,-0.482276084,-9.850209383,-1.077022291,14.15847802
31:52.1,1.42E+12,4.414021,-2.3031106,-1.0963202,5.098020969,-0.323549158,-9.882826554,-0.959328035,14.10347536
31:52.1,1.42E+12,1.1514057,-1.5564634,0.48199767,1.995152915,-0.345721048,-9.637402922,-0.601679781,13.69657385
31:52.1,1.42E+12,-0.067060545,-1.2281959,-1.1367362,1.674852672,-0.423619057,-9.31959582,-0.313975065,13.26161439
31:52.1,1.42E+12,-0.55639297,-3.4554145,2.0282822,4.04516887,-0.406563522,-9.409633588,-0.518357041,13.0950674
31:52.2,1.42E+12,3.878734,-15.229031,-0.1619632,15.71604895,-0.267284158,-9.594798534,-0.785548405,13.11318189
31:52.2,1.42E+12,4.577631,-18.989212,-7.0965924,20.78236035,0.075547922,-9.624772214,-1.110483693,13.06085575
31:52.2,1.42E+12,-4.15012,-19.500698,-6.80934,21.06817101,0.076730454,-9.816400734,-1.363095387,13.23727297
31:52.2,1.42E+12,-3.1472054,-19.45639,7.3356457,21.03016195,0.107545378,-10.07393418,-1.402960473,13.4110581
31:52.2,1.42E+12,-2.9059072,-18.21667,3.8776863,18.85014094,0.131609334,-10.1425665,-1.532093927,13.41804387
31:52.3,1.42E+12,0.008981323,-12.873679,2.9797037,13.21402005,0.179629474,-10.02146532,-1.511092599,13.29879205
31:52.3,1.42E+12,2.98629,-8.929681,1.5052698,9.53535358,0.156679194,-9.820142982,-1.300983523,13.06104516
31:52.3,1.42E+12,0.66252226,-5.640271,2.0112176,6.024665047,0.020678008,-9.556861482,-1.106840251,12.74863148
31:52.3,1.42E+12,-2.8190877,-2.1996758,2.2628443,4.231582849,-0.179063626,-9.247362118,-0.905814285,12.42122761
31:52.3,1.42E+12,-6.2445645,0.7388635,1.7031583,6.514695178,-0.386110076,-8.974680168,-0.665584859,12.21127333
31:52.4,1.42E+12,-7.4944654,3.2467484,1.3385166,8.276473494,-0.513156886,-8.71888908,-0.483847781,12.12989689
31:52.4,1.42E+12,-7.1163516,2.171684,1.7317488,7.639216282,-0.651708769,-8.557695286,-0.329395965,12.11464023
31:52.4,1.42E+12,-3.6943176,-1.4250367,-2.1725821,4.516505852,-0.793595715,-8.530532772,-0.225386247,12.03330984
31:52.4,1.42E+12,2.4926167,-9.796228,-14.895076,18.0011808,-0.811806841,-8.703812422,-0.489003063,12.31382957
31:52.4,1.42E+12,5.339546,-18.250198,-18.911673,26.81849836,-0.736181113,-9.047357008,-0.831140585,12.79790527
31:52.5,1.42E+12,1.4561719,-5.853428,3.509003,6.978263252,-0.710290951,-9.131015046,-0.732082577,12.89319128
31:52.5,1.42E+12,-2.1040246,-6.771918,12.754827,14.59353983,-0.751158965,-9.177562252,-0.539002077,13.07666882
31:52.5,1.42E+12,-9.990674,-17.562677,9.851613,22.47922305,-1.016850451,-9.230914272,-0.382966565,13.21841248
31:52.5,1.42E+12,-7.9288616,-7.0407586,9.094039,13.96927605,-1.202659055,-8.992855304,-0.031940525,13.08198881
31:52.5,1.42E+12,-8.216264,-3.6327956,8.870105,12.62469646,-1.287583453,-8.687307716,0.274370505,12.92710098
31:52.6,1.42E+12,-6.9443593,-13.244608,11.06993,18.6061043,-1.383896171,-8.567125636,0.382724185,12.89564667
31:52.6,1.42E+12,-3.3715887,-18.719173,2.577041,19.19417069,-1.380447341,-8.594401896,0.329554751,12.91010931
31:52.6,1.42E+12,3.8203554,-18.260078,-12.689113,22.56189603,-1.305620946,-8.721613356,0.013600779,13.11536531
31:52.6,1.42E+12,6.499634,-14.759458,-0.78751236,16.14642432,-1.222992772,-8.871245208,-0.037227525,13.28125623
31:52.6,1.42E+12,6.2445645,-17.998123,-3.6262093,19.39268963,-1.097715285,-9.161554514,-0.164852129,13.58029692
31:52.7,1.42E+12,5.9459352,-17.078585,-9.198222,20.28890088,-0.915508187,-9.499243288,-0.415440023,13.89410112
31:52.7,1.42E+12,2.7613077,-12.069402,-11.508518,16.90388332,-0.728256581,-9.79900394,-0.694860967,14.07965436
31:52.7,1.42E+12,1.1030562,-9.841584,-6.9335814,12.08917117,-0.570266117,-10.08429267,-0.887327727,14.15057131
31:52.7,1.42E+12,1.9166144,-7.1638026,-7.2208343,10.35055199,-0.427367273,-10.2816303,-1.046324094,14.23896791
31:52.7,1.42E+12,2.9430299,-3.7015028,-6.16478,7.769624214,-0.315543815,-10.32571962,-1.005638694,14.21945676
31:52.8,1.42E+12,2.481839,-1.4235398,-1.5736775,3.26534091,-0.328662535,-10.06275247,-0.683364884,13.82214978
31:52.8,1.42E+12,2.0257375,-2.2537134,-2.7878027,4.117606149,-0.386205875,-9.837378134,-0.606820058,13.58786116
31:52.8,1.42E+12,0.50385225,-1.549877,-0.78242296,1.807808478,-0.3663332,-9.883072112,-0.916561957,13.32939403
31:52.8,1.42E+12,0.17229171,-6.1987596,1.8021026,6.457699187,-0.285061205,-9.774490904,-1.135667325,13.10465594
31:52.9,1.42E+12,4.452491,-16.909286,0.96145064,17.51208201,-0.000440085,-9.746301504,-1.230764572,13.02414318
31:52.9,1.42E+12,0.24863297,-19.217787,-6.7792525,20.37997596,0.097288684,-10.00206565,-1.41567505,13.26569303
31:52.9,1.42E+12,-4.247717,-19.033968,-5.537435,20.27309113,0.151760404,-10.2521895,-1.68652781,13.42192068
31:52.9,1.42E+12,-2.1200414,-19.384838,8.072114,21.10510707,0.229637456,-10.33186578,-1.71498663,13.46270168
31:52.9,1.42E+12,-2.40445,-17.921482,6.05416,19.06865885,0.27222689,-10.31306188,-1.634660676,13.45396093
31:52.9,1.42E+12,1.1029065,-11.376193,3.187771,11.8657513,0.240684484,-10.17048334,-1.410492836,13.28435956
31:53.0,1.42E+12,3.3434472,-8.442893,2.224075,9.349202693,0.174974128,-9.970029184,-1.207808326,13.04826345
31:53.0,1.42E+12,0.37601808,-5.1485434,2.938689,5.940099475,0.036455176,-9.738427792,-0.998010606,12.77200302
31:53.1,1.42E+12,-3.0883777,-1.2440629,3.3449442,4.719578479,-0.137806446,-9.52743557,-0.734558462,12.53940163
31:53.1,1.42E+12,-6.5554676,2.1865032,1.1226654,7.001094864,-0.297251872,-9.308569706,-0.583202214,12.4601259
31:53.1,1.42E+12,-7.7712398,3.9544766,1.0753638,8.785582537,-0.493933874,-9.096101534,-0.42173299,12.43814748
31:53.1,1.42E+12,-6.7629366,2.3444247,1.1090437,7.243177242,-0.735836836,-8.964201824,-0.219892716,12.35745083
31:53.1,1.42E+12,-3.3450937,-0.87403244,-6.165379,7.068626655,-0.89101913,-8.935620261,-0.321273892,12.39686295
31:53.1,1.42E+12,1.0615925,-12.380156,-16.880997,20.96099475,-0.892815394,-9.152094113,-0.668533786,12.77617978
31:53.1,1.42E+12,3.8152661,-16.449593,-13.057946,21.3460844,-0.815168862,-9.456522055,-0.906957982,13.16960442
31:53.1,1.42E+12,-0.29279113,-1.4415023,12.488081,12.57441142,-0.809896825,-9.416243811,-0.697762006,13.34018927
31:53.2,1.42E+12,-2.692002,-10.806028,11.7930765,16.22016551,-0.941311545,-9.327783751,-0.458661212,13.3502716
31:53.2,1.42E+12,-9.578431,-18.387463,6.041137,21.59491774,-1.224432785,-9.315748771,-0.195906624,13.36652275
31:53.2,1.42E+12,-3.2320788,-6.348149,5.754334,9.157384391,-1.206071961,-9.052697791,0.055366856,13.12830702
31:53.2,1.42E+12,-5.263654,-6.6641417,8.940608,12.3309087,-1.248400933,-8.796852825,0.087466102,12.95432195
31:53.2,1.42E+12,-5.2471886,-13.196558,10.406959,17.60644561,-1.295226561,-8.696450585,0.218051556,12.92944804
31:53.3,1.42E+12,-4.270769,-18.63849,1.5374528,19.18323587,-1.380821567,-8.811746805,0.189206538,13.04883236
31:53.3,1.42E+12,3.1925611,-18.820961,-6.866521,20.28719128,-1.376696145,-9.009572405,0.021770722,13.26386911
31:53.3,1.42E+12,7.800279,-17.016464,-4.342919,19.21627813,-1.23394101,-9.237096265,-0.10531201,13.52770138
31:53.4,1.42E+12,7.2506223,-18.596727,-4.1165895,20.38028675,-1.03254681,-9.565037289,-0.232900686,13.85067545
31:53.4,1.42E+12,5.7160134,-15.490687,-7.9107494,18.30885439,-0.793335252,-9.889628299,-0.42517884,14.08655864
31:53.4,1.42E+12,2.6508377,-11.379786,-10.622959,15.79157142,-0.59042919,-10.18215899,-0.664408352,14.2368606
31:53.4,1.42E+12,2.3692732,-9.878108,-7.2121525,12.45815463,-0.400716694,-10.42315483,-0.843286378,14.33323936
31:53.4,1.42E+12,1.7284557,-5.9378524,-7.327113,9.588129909,-0.292261228,-10.51341114,-0.946376996,14.43467184
31:53.4,1.42E+12,3.5081048,-3.1840289,-5.97258,7.623421225,-0.271951466,-10.38116716,-0.767927076,14.22711665
31:53.4,1.42E+12,2.956502,-0.8140073,-0.3185376,3.08301446,-0.319612346,-10.03244334,-0.396064368,13.75240698
31:53.5,1.42E+12,1.2340338,-1.5937358,-1.6087047,2.578907527,-0.324055108,-9.947249501,-0.498418522,13.66441986
31:53.5,1.42E+12,-0.017363891,-0.56881714,-2.14953,2.223585767,-0.282321894,-9.823187484,-0.796505662,13.41702078
31:53.5,1.42E+12,-0.48379394,-4.639452,1.4754817,4.89240408,-0.092184293,-9.564722984,-0.964028288,13.0652844
31:53.5,1.42E+12,3.5548077,-15.993641,0.5983058,16.39485224,0.137489093,-9.743780632,-1.133942952,13.11379592
31:53.5,1.42E+12,2.877616,-19.093245,-6.6958756,20.43691338,0.359366693,-10.05298962,-1.445262564,13.27004026
31:53.6,1.42E+12,-4.389921,-19.514769,-6.2369304,20.95225325,0.410455459,-10.17839284,-1.791399772,13.31696324
31:53.6,1.42E+12,-4.378545,-19.491568,4.9671206,20.58555723,0.390316333,-10.19384074,-1.74359818,13.34479097
31:53.6,1.42E+12,-3.9863603,-18.98472,4.0290217,19.81271505,0.234182019,-10.20833358,-1.409235486,13.28980735
31:53.6,1.42E+12,-0.41508684,-13.5836525,4.426894,14.29284096,0.095887602,-10.18481747,-1.304947358,13.25273569
31:53.6,1.42E+12,2.9475205,-10.193203,1.6645386,10.74057509,0.029946722,-10.02871907,-1.1991324,13.07969339
31:53.7,1.42E+12,0.83032334,-5.8905506,2.0977378,6.307814764,-0.072365515,-9.804958382,-0.973213204,12.80007167
31:53.7,1.42E+12,-2.6316774,-1.8145267,2.5589287,4.094673268,-0.180225217,-9.599860876,-0.69186427,12.54388747
31:53.7,1.42E+12,-5.5750065,1.3019925,0.9621991,5.805317309,-0.313786471,-9.376989346,-0.53394866,12.41821039
31:53.7,1.42E+12,-7.779173,3.7645216,0.6885681,8.669560627,-0.507702219,-9.158422862,-0.375760612,12.38459057
31:53.7,1.42E+12,-7.487729,4.141438,2.0859122,8.807305149,-0.716317397,-9.001564046,-0.210746768,12.40534419
31:53.8,1.42E+12,-5.270989,1.3814772,-2.1835093,5.870222922,-0.871373957,-8.945463706,-0.222943404,12.45744183
31:53.8,1.42E+12,-1.2910652,-5.056934,-14.7390995,15.63587173,-0.937710011,-9.001528118,-0.46196934,12.68780714
31:53.8,1.42E+12,3.5598972,-17.40326,-16.678318,24.36621879,-0.876589112,-9.318595778,-0.779887241,13.13897534
31:53.8,1.42E+12,2.1763244,-3.622467,8.071964,9.111270925,-0.836508458,-9.267069926,-0.654490013,13.19204678
31:53.8,1.42E+12,1.4968872,-5.019961,16.217127,17.04217967,-0.895620534,-9.029283426,-0.349376486,13.18264873
31:53.9,1.42E+12,-8.763825,-17.327517,7.3703732,20.76944571,-1.075869694,-8.991478026,-0.066383972,13.19043813
31:53.9,1.42E+12,-4.2273593,-11.132949,6.3709016,13.50561022,-1.07546254,-8.833457646,0.17178276,13.05508851
31:53.9,1.42E+12,-4.7325587,-5.0983977,6.394552,9.44886587,-1.127712886,-8.54772884,0.13823152,12.82196368
31:53.9,1.42E+12,-5.988896,-11.38248,8.182584,15.24409417,-1.199401806,-8.4169488,0.1808,12.74547239
31:53.9,1.42E+12,-4.8575487,-17.85981,6.0781107,19.4810683,-1.31861091,-8.54662114,0.238606794,12.89777873
31:54.0,1.42E+12,-1.1115885,-19.346968,-1.4895525,19.43603783,-1.407711624,-8.76470264,0.164334244,13.09951543
31:54.0,1.42E+12,5.7423587,-16.963326,-11.641292,21.35998108,-1.300384811,-9.000998292,-0.127265376,13.40791307
31:54.0,1.42E+12,7.4515047,-18.29316,-6.4286814,20.77239923,-1.089587163,-9.341980234,-0.322737888,13.72896948
31:54.0,1.42E+12,6.095175,-14.328204,-8.868458,17.91921135,-0.836574311,-9.672274378,-0.522560356,13.94733181
31:54.0,1.42E+12,2.9581485,-10.892099,-8.432864,14.08906166,-0.621986545,-9.96920589,-0.712724912,14.05340139
31:54.1,1.42E+12,1.7949175,-8.928034,-6.632857,11.26615782,-0.450829463,-10.19465506,-0.867562926,14.133861
31:54.1,1.42E+12,4.230353,-5.4247193,-8.841064,11.20213724,-0.299320529,-10.2856688,-0.921076626,14.21653122
31:54.1,1.42E+12,5.1841693,-2.5584795,-4.24128,7.170068669,-0.216868993,-10.08923527,-0.668282286,13.94071269
31:54.1,1.42E+12,1.3727952,-1.2181668,2.065854,2.763376515,-0.265718411,-9.784606747,-0.365806286,13.56905854
31:54.1,1.42E+12,-0.520318,-0.79963714,-0.79260176,1.240309609,-0.270268949,-9.771769444,-0.631419941,13.3423765
31:54.2,1.42E+12,-2.3355932,-0.98764616,-1.6961229,3.050782428,-0.263140773,-9.575401807,-0.901203929,13.07898884
31:54.2,1.42E+12,-2.08217,-7.632029,-1.6982186,8.091183163,-0.113215553,-9.360293127,-1.055991041,12.80891415
31:54.2,1.42E+12,4.503535,-17.642313,-2.8512707,18.42994249,0.041496723,-9.586176407,-1.228103135,12.99436531
31:54.2,1.42E+12,-1.2808864,-19.317478,-7.307953,20.69327918,0.121152075,-9.839243133,-1.553074355,13.16161272
31:54.2,1.42E+12,-5.3703823,-18.295704,-4.9653244,19.70350825,0.118688201,-9.941226053,-1.860520023,13.20355397
31:54.3,1.42E+12,-4.376449,-19.372564,5.5049524,20.60956192,0.116574601,-9.955907533,-1.781170031,13.23208049
31:54.3,1.42E+12,-1.5979271,-17.175283,4.826264,17.9119106,0.020764837,-9.922993973,-1.547314331,13.18457488
31:54.3,1.42E+12,3.6088455,-9.544751,2.4611819,10.49683066,-0.063063833,-9.773559713,-1.411232313,13.01018593
31:54.4,1.42E+12,3.4405951,-7.32382,0.9421408,8.146389588,-0.139264377,-9.548101573,-1.310057707,12.76550799
31:54.4,1.42E+12,-0.642464,-4.026477,2.4056475,4.734175421,-0.266433925,-9.318817373,-1.103729769,12.49401441
31:54.4,1.42E+12,-5.513634,0.32587233,4.255351,6.972400218,-0.429723359,-9.084704206,-0.806163569,12.31763098
31:54.4,1.42E+12,-8.086783,4.330345,2.1049228,9.411622979,-0.638844483,-8.800535146,-0.619822063,12.25670035
31:54.4,1.42E+12,-7.5519457,6.248157,2.339036,10.07682684,-0.824452511,-8.556814958,-0.426499083,12.26647429
31:54.4,1.42E+12,-4.865033,2.542014,-2.1094134,5.880476695,-0.991915267,-8.4422941,-0.349235751,12.2316154
31:54.4,1.42E+12,1.1229647,-4.3941126,-13.092673,13.8559504,-1.028586013,-8.513896206,-0.604718459,12.44707412
31:54.5,1.42E+12,6.317313,-17.113611,-18.672022,26.10418607,-0.926920429,-8.82429371,-0.945984805,12.91757969
31:54.5,1.42E+12,0.7493417,-5.921985,4.9672704,7.765641928,-0.911586317,-8.931357067,-0.803648797,13.02842081
31:54.5,1.42E+12,-1.843267,-2.916086,15.827637,16.19923714,-0.938775778,-8.896889747,-0.516605691,13.25455747
31:54.5,1.42E+12,-10.527009,-16.498093,8.454719,21.31870691,-1.220412112,-8.906978787,-0.359477427,13.35303457
31:54.5,1.42E+12,-6.037994,-15.699503,0.73572004,16.83665792,-1.398724312,-8.839103947,-0.210845514,13.28102946
31:54.6,1.42E+12,-4.0803647,-2.156865,3.341651,5.698076353,-1.392533186,-8.491945867,-0.019273886,12.97594592
31:54.6,1.42E+12,-6.7379384,-5.851482,9.688004,13.17182892,-1.439721054,-8.219144147,0.075143782,12.82767135
31:54.6,1.42E+12,-3.8423598,-16.74927,15.32109,23.02254489,-1.436841044,-8.174435147,0.300985148,12.89186795
31:54.6,1.42E+12,-0.32632142,-19.195932,1.0092014,19.22521205,-1.435065736,-8.286680737,0.232631296,12.99051537
31:54.7,1.42E+12,7.108867,-15.45087,-13.235926,21.55122063,-1.351838806,-8.391834077,-0.065377996,13.20672828
31:54.7,1.42E+12,7.07863,-16.60961,-3.9594164,18.48413172,-1.226872672,-8.606215265,-0.18652108,13.45025462
31:54.7,1.42E+12,5.7808285,-17.269888,-4.676126,18.8024776,-1.058622554,-8.915322491,-0.331222174,13.74441071
31:54.7,1.42E+12,4.155209,-13.175751,-11.434871,17.93383537,-0.864018244,-9.204877361,-0.579163576,13.98698107
31:54.7,1.42E+12,0.6930588,-10.171349,-9.668544,14.05053074,-0.694573608,-9.483594773,-0.786305818,14.09460047
31:54.7,1.42E+12,0.8840616,-7.1733828,-6.3325815,9.609400302,-0.527137796,-9.709891189,-0.954675692,14.11064237
31:54.8,1.42E+12,2.4463627,-3.9109173,-8.337961,9.528985162,-0.372790762,-9.815739079,-1.077764726,14.18381762
31:54.8,1.42E+12,2.8683352,-1.585503,-0.6730005,3.345757949,-0.289602754,-9.746310459,-0.796442746,13.93801534
31:54.8,1.42E+12,1.805695,-0.83795744,-0.86220706,2.169356614,-0.324686798,-9.415004408,-0.480120528,13.4940781
31:54.8,1.42E+12,1.2566369,-1.131497,-3.1385233,3.565073669,-0.343080548,-9.365185008,-0.704330274,13.38315415
31:54.8,1.42E+12,0.42541534,-4.09698,1.2281959,4.298219224,-0.364509986,-9.346725388,-1.004108896,13.12827495
31:54.9,1.42E+12,3.3500335,-14.57564,0.30835876,14.95884658,-0.122232816,-9.291687848,-1.145349184,13.01206296
31:54.9,1.42E+12,3.9303768,-18.900297,-4.885241,19.91317825,0.040921906,-9.447034808,-1.370472036,13.14021432
31:54.9,1.42E+12,-3.608546,-19.398312,-6.5373554,20.78588772,0.06340216,-9.733033094,-1.629110184,13.36695476
31:54.9,1.42E+12,-4.744234,-19.103874,1.3781841,19.73233766,0.0882954,-9.887460974,-1.765198182,13.45671963
31:55.0,1.42E+12,-3.5290613,-19.516266,5.486541,20.57768316,0.114865148,-9.920590094,-1.777029576,13.47865193
31:55.0,1.42E+12,0.6673123,-13.5764675,3.7995489,14.11390617,0.150443164,-9.805180084,-1.671247548,13.37220929
31:55.0,1.42E+12,3.059787,-8.832683,1.9580781,9.550531677,0.09679173,-9.642567224,-1.399260146,13.13602031
31:55.0,1.42E+12,1.4096187,-5.8953404,1.7251625,6.302241582,-0.02404599,-9.394610832,-1.236183268,12.84661715
31:55.0,1.42E+12,-1.7962646,-2.5475523,2.7623556,4.164996722,-0.181874782,-9.158997798,-1.003566996,12.57153286
31:55.0,1.42E+12,-5.346881,0.6518944,2.09669,5.780156719,-0.347975372,-8.92811793,-0.792975916,12.40535476
31:55.1,1.42E+12,-7.1645513,3.286865,1.0597961,7.953454887,-0.527164748,-8.68381995,-0.639122854,12.3391007
31:55.1,1.42E+12,-7.404802,3.2745905,2.2007236,8.390305118,-0.759867848,-8.509833754,-0.418287102,12.28286406
31:55.1,1.42E+12,-5.2989807,0.57570285,-2.3016138,5.805863959,-0.969530848,-8.447150107,-0.379493778,12.25557997
31:55.1,1.42E+12,-0.7259903,-6.686445,-14.126723,15.64608294,-1.011506558,-8.556515671,-0.703345318,12.51323409
31:55.1,1.42E+12,3.0499077,-17.649647,-18.545385,25.78261587,-0.940102044,-8.893515868,-1.058400983,13.00408022
31:55.2,1.42E+12,0.5131329,-4.047134,7.2874455,8.351614269,-0.883127522,-8.954705625,-0.878729615,13.11009686
31:55.2,1.42E+12,-1.0927277,-2.3574476,13.191618,13.44508827,-0.863338676,-8.849213997,-0.580932883,13.21717496
31:55.2,1.42E+12,-9.436676,-16.7349,8.594677,21.0469999,-1.142142896,-8.831065737,-0.352013929,13.26951611
31:55.2,1.42E+12,-5.4206777,-11.382629,3.3837135,13.0536396,-1.224938722,-8.672368757,-0.138180599,13.11672332
31:55.2,1.42E+12,-4.380491,-4.13081,6.6493225,8.970272146,-1.205140896,-8.389070877,0.094112339,12.90205859
31:55.3,1.42E+12,-2.982997,-13.579311,10.516531,17.43253804,-1.177271856,-8.273205817,0.194343911,12.83851812
31:55.4,1.42E+12,0.20716919,-18.747913,6.772666,19.93479786,-1.14116993,-8.304658417,0.233271951,12.87897586
31:55.4,1.42E+12,3.7745507,-19.362535,-9.65148,21.96146764,-1.137855826,-8.501014097,-0.008981287,13.1082686
31:55.4,1.42E+12,6.7753606,-16.079712,-1.6461269,17.52633399,-1.071160516,-8.676131937,-0.060746641,13.29586749
31:55.4,1.42E+12,5.3111057,-17.463285,-3.2163615,18.53426956,-0.952089122,-8.944868097,-0.173186821,13.57186937
31:55.4,1.42E+12,4.893923,-16.521444,-5.840405,18.19392549,-0.743937982,-9.281814424,-0.375101941,13.79629988
31:55.4,1.42E+12,-0.22707778,-12.489578,-14.119838,18.85234596,-0.586743877,-9.618212884,-0.699597157,13.98511434
31:55.4,1.42E+12,-0.95695996,-9.873169,-9.226962,13.54740072,-0.454844163,-9.940639404,-0.930917117,14.05452581
31:55.4,1.42E+12,0.71626055,-6.565497,-5.278024,8.454366764,-0.343218292,-10.12278962,-0.994289329,14.10600362
31:55.4,1.42E+12,2.9321027,-3.218008,-6.8627787,8.127147914,-0.307035532,-10.09926753,-0.869691443,13.99142757
31:55.5,1.42E+12,4.0818615,-0.8313711,-1.6359481,4.475387961,-0.351744562,-9.773622734,-0.528969965,13.5588516
31:55.5,1.42E+12,2.6246421,-2.1463866,-1.0234218,3.541625865,-0.314238554,-9.698110766,-0.648783809,13.47437128
31:55.5,1.42E+12,1.0761123,-1.3292358,-1.2020004,2.090380457,-0.255850968,-9.666373762,-0.989376557,13.19219415
31:55.5,1.42E+12,0.35206786,-4.7853985,0.7165599,4.851540855,-0.03826943,-9.432119872,-1.144139739,12.86285083
31:55.5,1.42E+12,3.3235388,-15.60475,-0.8827144,15.97915259,0.148961226,-9.430224812,-1.176508428,12.84570072
31:55.6,1.42E+12,1.0214758,-19.040257,-5.640271,19.88435205,0.250998036,-9.767892652,-1.356146868,13.12942624
31:55.6,1.42E+12,-5.7972946,-19.492466,-4.8964677,20.91746283,0.269810912,-10.04071233,-1.647836302,13.28433891
31:55.7,1.42E+12,-4.779112,-19.428549,3.5362463,20.31781154,0.251075868,-10.09429791,-1.883533176,13.23024425
31:55.7,1.42E+12,-1.3150154,-19.229313,5.7208037,20.10530624,0.231301988,-10.09496553,-1.78930113,13.24784613
31:55.7,1.42E+12,2.5797355,-13.420193,4.903503,14.51898609,0.140719358,-10.05435199,-1.42651255,13.10720144
31:55.7,1.42E+12,3.9496865,-8.955128,1.6581019,9.926915072,0.078140488,-9.901262352,-1.314162184,12.93605711
31:55.7,1.42E+12,1.7741107,-6.0103016,2.0366647,6.589324487,-0.001993868,-9.676070624,-1.17990637,12.69179404
31:55.7,1.42E+12,-1.4561719,-2.658771,3.3669484,4.530545371,-0.114221486,-9.465731024,-0.883869982,12.42372824
31:55.7,1.42E+12,-5.144502,0.8589139,1.7362394,5.497104799,-0.230972702,-9.245125766,-0.655774314,12.25265973
31:55.7,1.42E+12,-7.7960877,3.8733454,-0.36688706,8.713001442,-0.404575688,-9.024191202,-0.536460425,12.23473175
31:55.8,1.42E+12,-8.255632,4.034111,1.76483,9.356502349,-0.618615582,-8.865290636,-0.334404605,12.23128209
31:55.8,1.42E+12,-6.1794496,0.17812958,-0.70683014,6.222293496,-0.799571278,-8.830017984,-0.335081198,12.2888128
31:55.8,1.42E+12,0.082478486,-3.7932618,-11.602373,12.20699377,-0.834035608,-8.889124071,-0.549884517,12.48956555
31:55.8,1.42E+12,3.0937665,-16.16758,-18.472935,24.74290528,-0.797293016,-9.189845731,-0.856572751,12.91312218
31:55.8,1.42E+12,3.7967048,-11.492202,-2.3990612,12.33860482,-0.729867227,-9.337750171,-0.929117893,13.07392989
31:55.9,1.42E+12,-1.5693365,-2.6228456,13.900843,14.23290456,-0.828254627,-9.098694283,-0.657268208,13.05941105
31:55.9,1.42E+12,-10.158325,-16.964373,7.1106634,21.01292583,-1.110028663,-9.059975803,-0.41735012,13.081406
31:55.9,1.42E+12,-6.2289968,-11.159444,6.9262466,14.53638481,-1.162437679,-8.895198443,-0.14807808,12.95641594
31:56.0,1.42E+12,-6.3068347,-2.7848089,8.443642,10.90075294,-1.193689693,-8.568817141,-0.006768922,12.77978425
31:56.0,1.42E+12,-5.512437,-12.083323,11.751613,17.7339805,-1.233357207,-8.420158281,0.118532518,12.7229102
31:56.0,1.42E+12,-2.0823197,-18.557959,8.455915,20.49966819,-1.288349847,-8.519788111,0.21165984,12.85062544
31:56.0,1.42E+12,4.6186457,-19.44202,-14.602434,24.74985068,-1.257172673,-8.731974851,-0.119550402,13.15461182
31:56.0,1.42E+12,8.076455,-15.412101,-0.7180568,17.41486687,-1.123835947,-8.922310063,-0.168414788,13.37686432
31:56.0,1.42E+12,6.0079064,-16.65736,-3.4757721,18.04559706,-0.967752527,-9.204506217,-0.293177342,13.65447633
31:56.0,1.42E+12,5.606591,-17.531393,-8.50172,20.27468486,-0.748683087,-9.568171965,-0.505145542,13.94436689
31:56.1,1.42E+12,0.8393047,-13.367802,-12.2151985,18.12770358,-0.588605967,-9.901265305,-0.770645434,14.14785187
31:56.1,1.42E+12,-1.2458593,-9.0406,-8.357121,12.37441252,-0.465427113,-10.14756912,-0.981802326,14.22753401
31:56.1,1.42E+12,0.655936,-6.8642755,-6.830147,9.705639506,-0.346328779,-10.29636868,-1.07237299,14.30552952
31:56.1,1.42E+12,2.4495063,-3.2304323,-6.108647,7.331530681,-0.282818847,-10.22724843,-0.91201147,14.13923848
31:56.1,1.42E+12,2.8283684,-1.2358301,-2.498155,3.970859132,-0.287249633,-9.89897209,-0.59106687,13.70300334
31:56.2,1.42E+12,2.1204903,-1.3290862,-2.0892055,3.260019764,-0.255102485,-9.844611134,-0.77859989,13.60117145
31:56.2,1.42E+12,0.56881714,-1.873504,-1.7777033,2.64457921,-0.221871588,-9.834932262,-1.077986316,13.38516127
31:56.2,1.42E+12,0.10074051,-4.5307784,1.4377601,4.754498466,-0.031123258,-9.59084983,-1.221124654,13.05931124
31:56.2,1.42E+12,2.7117608,-15.236964,-0.6655161,15.49069496,0.131525512,-9.66793653,-1.302109246,13.10805235
31:56.2,1.42E+12,1.2084371,-18.99026,-5.651498,19.85018198,0.243304074,-9.96512553,-1.548125656,13.32565055
31:56.3,1.42E+12,-5.724845,-19.184706,-6.195766,20.95744047,0.188467114,-10.07723343,-1.882371596,13.3961486
31:56.3,1.42E+12,-3.513344,-19.368374,1.8953586,19.77548689,0.11405685,-10.08964265,-1.979917744,13.39296238
31:56.3,1.42E+12,-2.1797671,-18.724562,4.946913,19.48929334,-0.005029506,-10.07688319,-1.687949884,13.34351889
31:56.3,1.42E+12,1.0234218,-13.386213,3.748954,13.93889331,-0.120068282,-10.02301321,-1.580048266,13.27177008
31:56.3,1.42E+12,2.6358688,-9.702673,1.9089803,10.23395688,-0.17357302,-9.86780097,-1.47754143,13.10576382
31:56.4,1.42E+12,1.0346484,-6.5940876,1.8482066,6.925919161,-0.250758512,-9.669253842,-1.323769198,12.8804037
31:56.4,1.42E+12,-1.8842816,-3.0897248,2.647694,4.484105263,-0.283902588,-9.481256778,-0.988418558,12.59303888
31:56.4,1.42E+12,-4.851711,0.19968475,1.8512005,5.196721747,-0.361797609,-9.279799703,-0.766855308,12.4260253
31:56.4,1.42E+12,-6.8264046,2.364932,0.3302133,7.231994466,-0.512650912,-9.101191123,-0.654690562,12.40157786
31:56.4,1.42E+12,-7.654632,3.9396574,1.8616786,8.807958827,-0.724385606,-8.958037815,-0.480201416,12.41519408
31:56.5,1.42E+12,-5.72724,1.6350499,0.8608598,6.01795196,-0.920567636,-8.908709395,-0.430265258,12.44604536
31:56.5,1.42E+12,-0.57794815,-1.9619701,-8.804241,9.038695167,-0.984619441,-8.905021065,-0.585881642,12.55598674
31:56.5,1.42E+12,4.726122,-16.337925,-18.092278,24.83132187,-0.911619247,-9.205194849,-0.923687194,13.01080557
31:56.5,1.42E+12,3.4560132,-8.419392,1.3662089,9.203081856,-0.84954034,-9.277874719,-0.910694214,13.09783639
31:56.5,1.42E+12,-1.5072157,1.217568,14.988781,15.11349486,-0.94615543,-8.941428359,-0.593264306,13.08052324
31:56.6,1.42E+12,-9.310938,-15.408209,8.860075,20.06507912,-1.152803706,-8.868787399,-0.303257386,13.08413778
31:56.6,1.42E+12,-6.2096868,-15.904876,2.7651997,17.29657828,-1.16105155,-8.797035599,-0.150024038,13.01172009
31:56.6,1.42E+12,-3.7073405,-4.0853047,6.1010127,8.225353733,-1.13961612,-8.490170713,-0.09872871,12.76987093
31:56.6,1.42E+12,-4.0381527,-11.134746,10.692565,15.95682274,-1.194078866,-8.328279373,0.000706516,12.68690126
31:56.7,1.42E+12,-2.090403,-17.883013,8.347691,19.84580267,-1.287481636,-8.417535773,0.069590276,12.79343759
31:56.7,1.42E+12,2.5517435,-19.350111,-7.4634795,20.8959737,-1.315440496,-8.625435433,-0.112841352,13.01281876
31:56.7,1.42E+12,7.479646,-16.14782,-3.282075,18.09611039,-1.20132979,-8.828185801,-0.219216146,13.24295448
31:56.7,1.42E+12,5.891299,-17.524956,-4.687203,19.0735775,-1.054380372,-9.125509501,-0.380299174,13.53381513
31:56.7,1.42E+12,5.2000365,-17.158518,-6.478079,19.06359429,-0.847489602,-9.485858139,-0.544585542,13.80514491
31:56.7,1.42E+12,-0.30596375,-13.048216,-13.426629,18.7249545,-0.697687123,-9.824289367,-0.805780381,14.00538398
31:56.8,1.42E+12,-1.257984,-10.120155,-10.12255,14.36892757,-0.557734163,-10.10737469,-1.043527981,14.10563248
31:56.8,1.42E+12,0.77164537,-7.4178247,-6.335575,9.785656362,-0.418712264,-10.25929377,-1.156102878,14.17689974
31:56.8,1.42E+12,2.8291168,-3.2973433,-6.817872,8.084537916,-0.363779498,-10.2493754,-1.060412858,14.09445062
31:56.8,1.42E+12,3.8140686,-0.13741425,-1.1996055,4.000631865,-0.349373456,-9.928772088,-0.714946268,13.67960515
31:56.8,1.42E+12,2.6806257,-1.1276051,-1.2820839,3.178204923,-0.371695038,-9.72148015,-0.692606722,13.49639715
31:56.9,1.42E+12,0.51747394,-1.1931688,-0.5095404,1.396804383,-0.329958829,-9.692886614,-0.98081439,13.23967515
31:56.9,1.42E+12,0.27827132,-4.3349853,2.2040167,4.871059648,-0.121226902,-9.44029886,-1.078947324,12.91683783
31:56.9,1.42E+12,3.5669324,-15.2577715,0.52316207,15.67789196,0.074691682,-9.52226541,-1.207009015,12.93966797
31:57.0,1.42E+12,1.7113911,-18.993103,-5.768704,19.92347276,0.235056198,-9.846431292,-1.491255935,13.12012237
31:57.0,1.42E+12,-5.782924,-19.425854,-6.414012,21.25901135,0.229646458,-9.993281912,-1.854568435,13.19062298
31:57.0,1.42E+12,-5.516179,-19.486328,-0.86445236,20.27048316,0.160969272,-10.01184929,-2.040975782,13.18603928
31:57.0,1.42E+12,-2.8045678,-18.921103,6.837781,20.31327124,0.012505002,-10.00143095,-1.612171482,13.09730769
31:57.0,1.42E+12,0.468376,-14.853013,5.151238,15.72789319,-0.139656578,-9.990249192,-1.494785586,13.06356822
31:57.0,1.42E+12,3.0582902,-10.779833,2.5875192,11.50013887,-0.198648902,-9.872698652,-1.37351976,12.93265906
31:57.0,1.42E+12,1.103655,-7.3274126,1.883084,7.645589259,-0.288707622,-9.668619044,-1.16582368,12.68007714
31:57.1,1.42E+12,-1.7886305,-3.1424153,2.8036697,4.575427496,-0.341266326,-9.46411131,-0.865446316,12.40903162
31:57.1,1.42E+12,-4.819228,0.3118016,2.3402336,5.366458055,-0.4127337,-9.277063278,-0.651499224,12.26887253
31:57.1,1.42E+12,-6.678961,3.522475,1.0683284,7.626117999,-0.55943164,-9.069328268,-0.493529716,12.2272821
31:57.1,1.42E+12,-7.158414,4.0694375,1.7058526,8.409110872,-0.751590046,-8.923330872,-0.337239724,12.24883371
31:57.1,1.42E+12,-5.274282,0.94139236,-2.2261705,5.801732955,-0.913643054,-8.879786423,-0.331800034,12.28545118
31:57.2,1.42E+12,0.34188902,-3.3922458,-14.2816515,14.68297617,-0.94921508,-8.921049615,-0.575648954,12.51391031
31:57.2,1.42E+12,2.5394692,-17.022602,-18.828146,25.50915452,-0.909802039,-9.224031575,-0.916657808,12.97120182
31:57.2,1.42E+12,2.2391937,-6.2906685,5.0156198,8.351223897,-0.867032975,-9.259229377,-0.845100614,13.04313633
31:57.2,1.42E+12,-0.5147795,-2.7527757,15.390545,15.64326204,-0.931563781,-9.009545611,-0.523979392,13.04618767
31:57.3,1.42E+12,-9.763447,-16.237783,8.274194,20.67493121,-1.151001463,-8.954496071,-0.245465552,13.06268265
31:57.3,1.42E+12,-6.1393332,-13.643079,5.5592895,15.9602856,-1.159291227,-8.843663531,-0.010364442,12.96273956
31:57.3,1.42E+12,-5.3780165,-5.7299347,6.774612,10.37547979,-1.196584677,-8.570894745,0.087220626,12.77473941
31:57.3,1.42E+12,-5.2630553,-12.587474,10.094559,16.97187009,-1.258250441,-8.448152985,0.190173546,12.72439095
31:57.3,1.42E+12,-3.2611184,-18.276545,5.3212843,19.31276927,-1.343941245,-8.545959625,0.221620152,12.83186847
31:57.3,1.42E+12,2.458787,-19.4037,-7.844138,21.07319881,-1.347482881,-8.739980165,0.026557786,13.04865331
31:57.4,1.42E+12,8.039183,-17.092806,-2.8045678,19.09602264,-1.207392189,-8.949954533,-0.066497702,13.29205538
31:57.4,1.42E+12,6.923852,-18.489101,-5.134323,20.39970233,-1.031229517,-9.257942057,-0.222138042,13.61036732
31:57.4,1.42E+12,5.9483304,-17.536333,-7.4607854,19.96419115,-0.815228689,-9.612662412,-0.40837776,13.90571671
31:57.4,1.42E+12,1.5509248,-12.9612465,-11.503578,17.39918347,-0.647682101,-9.919185982,-0.645053586,14.10906049
31:57.4,1.42E+12,-0.48124924,-9.895622,-8.659942,13.15862953,-0.504214446,-10.19589157,-0.855485998,14.1960739
31:57.5,1.42E+12,0.39697447,-7.0510874,-6.588549,9.658384967,-0.381730156,-10.36961432,-1.004474174,14.26888256
31:57.5,1.42E+12,2.0240908,-3.336412,-6.4613137,7.548321888,-0.329689377,-10.39710315,-0.957615628,14.23907509
31:57.5,1.42E+12,2.655927,-0.14819184,-1.1789484,2.909609661,-0.371093277,-10.07330849,-0.619349036,13.80064085
31:57.5,1.42E+12,1.7504599,0.68273026,-1.1246114,2.189744567,-0.405204343,-9.891266045,-0.669165442,13.6603741
31:57.5,1.42E+12,-0.044607237,-1.0927277,-3.2614179,3.439896852,-0.375952174,-9.937471959,-1.03416942,13.42690214
31:57.6,1.42E+12,-0.6146219,-4.3773475,-0.11376343,4.421750031,-0.202025852,-9.716854729,-1.213646188,13.11403556
31:57.6,1.42E+12,2.5355773,-14.779816,-1.019979,15.03038491,-0.02712057,-9.694353529,-1.289349762,13.06871169
31:57.6,1.42E+12,2.9606931,-18.92799,-4.1233253,19.59684466,0.106240102,-9.991207235,-1.493836522,13.29614151
31:57.6,1.42E+12,-4.2061033,-19.32676,-5.88112,20.63498315,0.10288109,-10.15504752,-1.825310222,13.38970472
31:57.6,1.42E+12,-3.400778,-19.463724,1.0804532,19.7881081,0.07667359,-10.18666174,-1.970654978,13.38855083
31:57.7,1.42E+12,-1.9261944,-18.79776,4.91937,19.52603921,-0.012885168,-10.17561472,-1.722997988,13.36115214
31:57.7,1.42E+12,0.3821553,-14.692547,5.6401215,15.74255222,-0.154834982,-10.14650926,-1.544554058,13.31408098
31:57.7,1.42E+12,3.1130762,-10.970686,2.737208,11.72772367,-0.210399438,-10.01542386,-1.396065838,13.1671639
31:57.7,1.42E+12,1.6262183,-7.083869,1.9245479,7.518621588,-0.281875802,-9.813930875,-1.2280133,12.93626445
31:57.7,1.42E+12,-1.2040961,-3.309468,2.5218058,4.331504398,-0.299838449,-9.619155915,-0.909044604,12.64839544
31:57.8,1.42E+12,-4.9455657,0.20686981,2.9466224,5.760555423,-0.373590083,-9.412615419,-0.647661156,12.476228
31:57.8,1.42E+12,-7.0941978,2.3137386,0.8321196,7.508225607,-0.530906947,-9.217984153,-0.504307264,12.43067939
31:57.8,1.42E+12,-7.295529,3.3766782,1.9947519,8.282857852,-0.733399863,-9.084503723,-0.328054786,12.43464579
31:57.8,1.42E+12,-6.131849,0.41403902,-0.732876,6.189354385,-0.932318215,-9.073474658,-0.318720196,12.47842024
31:57.8,1.42E+12,-2.4526496,-2.988685,-12.985796,13.54911901,-1.034983721,-9.110696256,-0.552794438,12.68583852
31:57.9,1.42E+12,1.6337028,-15.838115,-18.651962,24.52367342,-1.012659143,-9.40359518,-0.91564287,13.1483759
31:58.0,1.42E+12,1.7164806,-7.1934414,2.392475,7.772762794,-0.983894958,-9.460764302,-0.911873704,13.20640996
31:58.0,1.42E+12,-0.62225604,0.80846876,14.558426,14.59412868,-1.067678727,-9.139439497,-0.631168426,13.1847347
31:58.0,1.42E+12,-8.270152,-14.501544,8.501571,18.73411065,-1.267309589,-9.049608317,-0.345762926,13.16094745
31:58.0,1.42E+12,-6.2415705,-16.801212,2.6291327,18.11491832,-1.276482519,-8.997115477,-0.164900032,13.09806559
31:58.0,1.42E+12,-2.5180635,-4.4258466,4.8532076,7.034371751,-1.216520209,-8.695905849,-0.050546833,12.83334336
31:58.0,1.42E+12,-2.7702892,-10.507998,8.639733,13.88299357,-1.215834637,-8.527643749,-0.014507793,12.70473781
31:58.0,1.42E+12,-2.1877007,-16.43193,8.854687,18.79361167,-1.268956171,-8.559222089,0.059561187,12.76605218
31:58.0,1.42E+12,-0.73347473,-19.097437,-1.4552737,19.16684394,-1.344791469,-8.725574169,-0.021294671,12.91938628
31:58.0,1.42E+12,6.1049047,-17.267792,-4.4840755,18.8561246,-1.244766475,-8.924381757,-0.148637861,13.14359699
31:58.1,1.42E+12,7.1359606,-17.739012,-5.6727533,19.94428766,-1.066274653,-9.216313691,-0.318166321,13.45097419
31:58.1,1.42E+12,6.2213626,-17.378262,-5.949827,19.39355006,-0.845462841,-9.570114963,-0.483967533,13.73151603
31:58.1,1.42E+12,2.0910017,-14.200969,-11.546539,18.42179067,-0.670063587,-9.924583843,-0.736264881,13.94742949
31:58.1,1.42E+12,-0.4869374,-10.898686,-10.644216,15.2419749,-0.536634055,-10.22394631,-0.983266253,14.08408677
31:58.1,1.42E+12,1.2033477,-8.177944,-7.156318,10.93342129,-0.407081461,-10.40633304,-1.081869203,14.18672053
31:58.2,1.42E+12,3.3278797,-3.7651205,-6.7181797,8.389568175,-0.347361648,-10.41379053,-0.930599767,14.06085237
31:58.2,1.42E+12,4.030818,-0.81565386,-1.3961467,4.343041627,-0.317534672,-10.08965157,-0.581959781,13.63753012
31:58.3,1.42E+12,1.9173628,-0.7234456,-0.020657044,2.049409758,-0.32397129,-9.978307113,-0.682685317,13.51149383
31:58.3,1.42E+12,0.694406,-1.0618918,-2.7586133,3.036405972,-0.29978758,-9.944489435,-1.045668483,13.25935671
31:58.3,1.42E+12,-0.7382648,-4.038602,-0.3502716,4.120440659,-0.119283936,-9.700505815,-1.218157795,12.9282669
31:58.3,1.42E+12,2.0957918,-14.63806,-0.44502458,14.79402551,0.045418564,-9.720405435,-1.338244077,12.9049417
31:58.3,1.42E+12,2.9900322,-18.908829,-4.3762994,19.63761959,0.212779538,-9.983983321,-1.561262305,13.09018449
31:58.3,1.42E+12,-4.4008484,-19.203716,-5.844147,20.55004207,0.230023676,-10.11630816,-1.880036425,13.16174793
31:58.3,1.42E+12,-2.6238935,-18.905087,-1.8814375,19.17881484,0.242768174,-10.128879,-2.024090861,13.15906885
31:58.3,1.42E+12,-2.2487736,-18.02357,3.39015,18.47699043,0.148616962,-10.1012764,-1.799405101,13.10714468
31:58.4,1.42E+12,1.1859838,-14.059663,4.631369,14.85026128,0.011552978,-10.04061354,-1.650686365,13.02222945
31:58.4,1.42E+12,3.8487964,-10.279424,3.598517,11.55115215,-0.049948134,-9.876420001,-1.476029565,12.84525845
31:58.4,1.42E+12,1.9143691,-6.5883994,2.3743625,7.26012486,-0.13062736,-9.657461329,-1.279326607,12.59117712
31:58.4,1.42E+12,-1.4319223,-3.468587,1.8529967,4.185103824,-0.190284302,-9.467608139,-1.012195113,12.32689553
31:58.4,1.42E+12,-5.696105,-0.48828462,2.3989115,6.199904066,-0.294581417,-9.279461391,-0.791018043,12.18772102
31:58.5,1.42E+12,-7.627389,1.9450552,0.739612,7.906157638,-0.455068686,-9.099538539,-0.644454823,12.15267647
31:58.5,1.42E+12,-7.8146496,3.4142501,0.4046086,8.537538301,-0.651843494,-8.964525297,-0.507136377,12.1724608
31:58.5,1.42E+12,-5.8517814,0.821342,-3.2207024,6.729849343,-0.821997662,-8.945134621,-0.547971457,12.24886559
31:58.5,1.42E+12,-1.5560143,-3.1702573,-11.527529,12.05635255,-0.888127146,-9.022194372,-0.756029809,12.44619775
31:58.6,1.42E+12,1.7229172,-13.549074,-18.232235,22.78069891,-0.852776657,-9.271321298,-1.055446151,12.83301379
31:58.6,1.42E+12,0.4540059,-5.853278,0.3851491,5.883478948,-0.831404101,-9.300839908,-1.0454679,12.86224837
31:58.6,1.42E+12,-1.0550061,0.81131285,13.60431,13.66925444,-0.903215769,-8.989017331,-0.75298212,12.83502576
31:58.6,1.42E+12,-7.194489,-14.390026,8.3587675,18.13015484,-1.106319411,-8.898258051,-0.503340264,12.80569197
31:58.6,1.42E+12,-5.5360875,-18.559006,0.7081773,19.38005376,-1.132919095,-8.882902971,-0.371554318,12.78059338
31:58.6,1.42E+12,-0.28186387,-4.392765,5.6401215,7.154495239,-1.070540813,-8.581483791,-0.280360952,12.52792112
31:58.7,1.42E+12,-3.0111382,-5.3417916,8.4801655,10.46493658,-1.092239689,-8.312364423,-0.209145042,12.34669907
31:58.7,1.42E+12,-2.7074199,-13.394746,12.607233,18.59278534,-1.154031193,-8.286408403,-0.069802812,12.40370373
31:58.7,1.42E+12,-2.3272104,-18.699265,2.3366408,18.98784638,-1.262836925,-8.440979983,-0.077814156,12.54890619
31:58.7,1.42E+12,4.315526,-17.574055,-8.244555,19.88577031,-1.209050771,-8.650783703,-0.281196214,12.79624916
31:58.7,1.42E+12,7.30451,-15.796202,-4.796625,18.05224295,-1.038878649,-8.900518383,-0.42756483,13.07066393
31:58.8,1.42E+12,6.3700037,-17.755777,-4.192332,19.32408372,-0.812567261,-9.259771319,-0.570343918,13.3419345
31:58.8,1.42E+12,4.102818,-14.446758,-7.760163,16.90449828,-0.588626945,-9.594981251,-0.74218957,13.52985995
31:58.8,1.42E+12,-0.20058289,-10.582244,-9.369017,14.1351548,-0.446728023,-9.874159695,-0.969464948,13.64690589
31:58.8,1.42E+12,-0.18067428,-7.669451,-7.3437285,10.61995622,-0.327704528,-10.0358295,-1.101681998,13.73551793
31:58.8,1.42E+12,2.2080584,-5.3956795,-8.142318,10.01430085,-0.234490368,-10.08396939,-1.004812438,13.66482156
31:58.9,1.42E+12,4.3954597,-2.5938063,-5.740862,7.681496833,-0.17925523,-9.819083211,-0.746590438,13.32797803
31:58.9,1.42E+12,3.5836976,-0.86834425,1.1630814,3.866480126,-0.14191089,-9.692581268,-0.77117831,13.24985238
31:58.9,1.42E+12,1.5361056,-1.1350895,-0.41074586,1.95365318,-0.098743657,-9.731452434,-1.070561748,12.99704287
31:58.9,1.42E+12,0.5510042,-2.2839506,-1.3820759,2.725833774,0.077679467,-9.487100566,-1.268234686,12.67687733
31:59.1,1.42E+12,1.4099181,-10.287208,-1.7277073,10.52613367,0.230709239,-9.356820486,-1.355371486,12.52510164
31:59.1,1.42E+12,4.8364425,-18.212477,-1.4061759,18.89610609,0.377799359,-9.632553094,-1.480559156,12.76233632
31:59.1,1.42E+12,-3.5102005,-19.395018,-6.1391835,20.64407433,0.363001133,-9.810293494,-1.776137486,12.89755794
31:59.1,1.42E+12,-5.3399954,-18.62442,-2.165846,19.4955241,0.299955239,-9.854143294,-1.996548146,12.91159619
31:59.1,1.42E+12,-1.1118878,-19.451002,5.694608,20.29793915,0.292386977,-9.861214594,-1.853550512,12.93421809
31:59.1,1.42E+12,-1.6551082,-16.69104,4.906497,17.47580934,0.137186719,-9.849679554,-1.665739062,12.90661179
31:59.1,1.42E+12,2.2758672,-12.145294,3.132536,12.74756917,0.039984851,-9.737805194,-1.489633276,12.76267742
31:59.1,1.42E+12,1.9453546,-8.882528,1.593137,9.231565073,-0.045535309,-9.567890514,-1.338773996,12.55943772
31:59.1,1.42E+12,0.04819977,-5.408852,2.9038115,6.139228323,-0.086391347,-9.392048174,-1.049766986,12.31378647
31:59.1,1.42E+12,-3.3699422,-1.1922706,3.7155733,5.155919371,-0.144051443,-9.197919866,-0.7625712,12.11206536
31:59.2,1.42E+12,-6.218668,1.8597326,1.7440233,6.721015869,-0.292491757,-8.997166334,-0.584564374,12.02781725
31:59.2,1.42E+12,-7.4034543,4.234694,0.34173936,8.535839422,-0.507118437,-8.837170044,-0.443365992,12.03074268
31:59.2,1.42E+12,-6.258036,3.0355375,0.87088895,7.009703992,-0.712895517,-8.760146216,-0.398025279,12.08407592
31:59.2,1.42E+12,-3.1346314,-0.55384827,-6.0394907,6.827013244,-0.813935401,-8.75675427,-0.518401953,12.17962799
31:59.3,1.42E+12,2.0263362,-10.509795,-16.376545,19.56407564,-0.787296797,-8.945712334,-0.790760587,12.51018139
31:59.3,1.42E+12,4.798721,-15.768209,-12.327615,20.58237668,-0.676557081,-9.180304474,-1.030307455,12.83942011
31:59.3,1.42E+12,-0.21839584,-7.155121,12.860506,14.71856202,-0.722840834,-9.030645694,-0.764196843,12.83791084
31:59.3,1.42E+12,-4.2598414,-16.12417,8.960965,18.93235328,-0.867838306,-8.974952514,-0.497451555,12.82380551
31:59.3,1.42E+12,-7.136859,-13.86357,6.440507,16.8704908,-0.922558518,-8.868149594,-0.251758475,12.75021449
31:59.3,1.42E+12,-7.220984,-3.3310232,7.349716,10.82851101,-1.014500328,-8.556668318,-0.067135405,12.58320841
31:59.3,1.42E+12,-8.022118,-5.75613,9.679621,13.82687501,-1.129967216,-8.311319518,0.058654015,12.4902061
31:59.4,1.42E+12,-4.7237267,-15.75878,13.125456,21.0459102,-1.248161426,-8.345301858,0.228535755,12.61411908
31:59.4,1.42E+12,-0.6755452,-19.061213,0.081430666,19.07335401,-1.338648258,-8.520937638,0.158194028,12.76456312
31:59.4,1.42E+12,4.904102,-16.216377,-9.59834,19.47175468,-1.2788536,-8.71349719,-0.081260022,13.00879571
31:59.4,1.42E+12,6.121221,-14.064603,-0.2615062,15.34114694,-1.127790734,-8.92541751,-0.12355008,13.23191658
31:59.4,1.42E+12,4.575236,-17.953516,-3.7863762,18.91026615,-0.922363914,-9.274722137,-0.247255834,13.48612382
31:59.5,1.42E+12,3.8872664,-17.659826,-7.2399945,19.47813684,-0.692070806,-9.666819761,-0.406847964,13.7175634
31:59.5,1.42E+12,2.9837453,-12.775333,-11.484568,17.43580143,-0.476102908,-9.990611423,-0.644631496,13.89552866
31:59.5,1.42E+12,2.988236,-10.4671335,-6.8662214,12.86994306,-0.29930256,-10.21638093,-0.717541876,14.01833054
31:59.6,1.42E+12,1.7160316,-7.024892,-6.983428,10.05296666,-0.233861642,-10.29347363,-0.626659856,13.97826282
31:59.6,1.42E+12,3.3061748,-3.2150145,-9.099129,10.20104204,-0.20219649,-10.08679244,-0.443997736,13.72666968
31:59.6,1.42E+12,3.3673975,-0.5536986,0.35102004,3.430621391,-0.143928658,-9.980800849,-0.444680317,13.67761253
31:59.6,1.42E+12,1.0707234,-0.9702823,-0.17289047,1.455261989,-0.101414068,-10.01643275,-0.720224326,13.43333268
31:59.6,1.42E+12,0.6791377,-1.8050963,-1.7283059,2.589718508,0.056058466,-9.764734158,-0.921965794,13.12252396
31:59.6,1.42E+12,0.9696835,-9.783356,-2.2975721,10.09619623,0.186173886,-9.589221158,-0.982080782,12.93684681
31:59.6,1.42E+12,4.8837442,-18.110239,0.4831952,18.76340032,0.289486047,-9.863570638,-1.085219308,13.16902491
31:59.7,1.42E+12,-3.6068995,-19.381096,-6.119724,20.64189013,0.277570821,-10.14435673,-1.377217098,13.37256398
31:59.7,1.42E+12,-4.4960504,-18.180742,-4.4006987,19.23850301,0.241798211,-10.24007665,-1.717375732,13.38547833
31:59.7,1.42E+12,-2.08217,-19.323317,5.025649,20.07444046,0.246699019,-10.25255769,-1.663595568,13.40721021
31:59.7,1.42E+12,-2.1727319,-18.48087,5.2136583,19.3247394,0.116933861,-10.27069399,-1.394431302,13.3959896
31:59.7,1.42E+12,2.9066556,-12.927268,2.2097049,13.43300787,0.028976773,-10.21331531,-1.254304704,13.30360489
31:59.8,1.42E+12,3.1597793,-9.0325165,2.4379802,9.874933266,-0.035227715,-10.0388501,-1.12169846,13.11462188
31:59.8,1.42E+12,0.3649411,-5.3088603,3.0240116,6.120606657,-0.109985253,-9.856092142,-0.906014968,12.89894405
31:59.8,1.42E+12,-2.7265801,-2.3595433,4.1399407,5.49006308,-0.160505197,-9.691638128,-0.635835814,12.72604222
31:59.8,1.42E+12,-5.864505,1.212778,2.3156846,6.420719939,-0.274181811,-9.513993548,-0.442647552,12.64205749
31:59.9,1.42E+12,-8.120314,4.793931,-1.0382409,9.486791768,-0.480749259,-9.310201338,-0.30056601,12.63150731
31:59.9,1.42E+12,-8.192314,5.9442887,-0.55010605,10.13662634,-0.732504733,-9.139439438,-0.196750891,12.6806099
31:59.9,1.42E+12,-5.1385145,2.191443,-1.859583,5.887682279,-0.906948975,-9.078243693,-0.257204179,12.72103394
31:59.9,1.42E+12,0.44128236,-4.8985634,-10.012379,11.1551955,-0.92884544,-9.153513171,-0.449236842,12.90506479
31:59.9,1.42E+12,5.447472,-16.197067,-18.087337,24.88316078,-0.830916084,-9.431775499,-0.783342064,13.34821133
31:59.9,1.42E+12,2.8472292,-11.129057,-2.554438,11.76808299,-0.802169862,-9.448612479,-0.799876678,13.37305032
32:00.0,1.42E+12,-1.959575,-6.324648,13.686639,15.20411765,-0.938090212,-9.210855899,-0.49802038,13.29921055
32:00.0,1.42E+12,-9.954899,-17.409996,7.8615017,21.54091882,-1.066984182,-9.171155459,-0.218006676,13.31714744
32:00.0,1.42E+12,-6.5741787,-13.686639,4.266428,15.77169365,-1.091667848,-9.072399839,-0.089361196,13.24267083
32:00.0,1.42E+12,-5.282515,-2.4495063,6.4167066,8.664823681,-1.175080392,-8.732369925,-0.074919224,13.01000852
32:00.0,1.42E+12,-6.8536477,-6.272706,9.80012,13.50413564,-1.279051182,-8.524003245,0.022953236,12.93057505
32:00.1,1.42E+12,-3.7290454,-16.47459,15.640376,23.02040957,-1.399149434,-8.610589165,0.273110036,13.13603185
32:00.1,1.42E+12,0.040565643,-19.15851,1.6320561,19.22794212,-1.437245213,-8.816108805,0.273888418,13.33595939
32:00.1,1.42E+12,7.4077954,-18.0336,-14.144087,24.08612378,-1.290053301,-9.068603765,-0.067069552,13.6948973
32:00.1,1.42E+12,8.263566,-15.069014,-2.2135968,17.32806154,-1.057383137,-9.346138633,-0.185652954,13.93834015
32:00.1,1.42E+12,7.585326,-17.687368,-4.0532713,19.66746464,-0.781303257,-9.737080645,-0.301598846,14.19726912
32:00.2,1.42E+12,5.859565,-14.515165,-11.700418,19.54288357,-0.516042871,-10.11207783,-0.542441993,14.41741001
32:00.2,1.42E+12,0.30820906,-11.749367,-10.855276,15.99936357,-0.38471797,-10.40777592,-0.776965292,14.5972032
32:00.2,1.42E+12,-0.7580237,-7.6531353,-6.408174,10.0104832,-0.337185816,-10.54976166,-0.784338958,14.6608726
32:00.2,1.42E+12,1.5055691,-3.9766304,-8.0299015,9.08623386,-0.347601158,-10.41909836,-0.617406088,14.45131576
32:00.2,1.42E+12,3.6928208,-1.7747095,-7.1702394,8.258259643,-0.369719162,-10.13922837,-0.514258576,14.20483342
32:00.3,1.42E+12,0.97492266,-1.5096108,1.0327024,2.072648838,-0.345852792,-10.02631817,-0.750814648,13.95191516
32:00.3,1.42E+12,-0.008382568,-1.239722,2.10627,2.444044643,-0.260823615,-9.72862921,-0.887908548,13.62214898
32:00.3,1.42E+12,0.19758911,-0.28859985,0.3183879,0.472971653,-0.114134653,-9.457129807,-1.01035093,13.2941986
32:00.3,1.42E+12,0.9397458,-5.2284775,-0.37826338,5.32570956,0.049079943,-9.495078893,-1.164910518,13.18414257
32:00.3,1.42E+12,5.0976496,-16.798069,-2.826722,17.7806499,0.311475295,-9.715917673,-1.415037378,13.26321807
32:00.4,1.42E+12,1.4048287,-19.202667,-5.9183927,20.14307166,0.434046403,-9.784795413,-1.795914352,13.2451613
32:00.4,1.42E+12,-3.2051349,-18.108294,-5.5413265,19.20649631,0.383454609,-9.765737033,-1.908369495,13.24782414
32:00.4,1.42E+12,-0.8186476,-19.22572,7.9766126,20.83086273,0.268999617,-9.825923893,-1.556870443,13.27500631
32:00.4,1.42E+12,0.001796265,-17.61432,3.3563204,17.93123417,0.146611123,-9.896918233,-1.484513911,13.32680805
32:00.4,1.42E+12,3.7992494,-13.662988,2.9861403,14.49236251,0.131091391,-9.811107673,-1.349063581,13.23844998
32:00.5,1.42E+12,4.4382706,-11.540401,2.2146447,12.56120027,0.142111475,-9.688719173,-1.159970797,13.10011125
32:00.5,1.42E+12,0.7759863,-8.542136,2.1124072,8.833600985,0.097956295,-9.604055233,-0.888031293,12.92806724
32:00.6,1.42E+12,-3.6735108,-3.7396734,3.1725028,6.12736589,-0.035278641,-9.469506031,-0.687256809,12.79321569
32:00.6,1.42E+12,-6.531218,-0.006286926,1.5004797,6.701364594,-0.200223633,-9.32913393,-0.517578655,12.72618365
32:00.6,1.42E+12,-7.730674,2.9666808,-1.6491207,8.442992038,-0.420960609,-9.205500024,-0.368578489,12.69102265
32:00.6,1.42E+12,-6.976991,3.2919543,-0.02469864,7.714659847,-0.627848379,-9.128586966,-0.376092863,12.77670342
32:00.6,1.42E+12,-4.3026524,0.30311966,-1.703757,4.637616534,-0.735315895,-9.103118926,-0.406710193,12.84035051
32:00.6,1.42E+12,-0.4326004,-5.844446,-9.262139,10.96047038,-0.757550657,-9.18390592,-0.557386855,13.00776555
32:00.6,1.42E+12,5.0928593,-16.634607,-18.022522,25.04912504,-0.675087141,-9.32093094,-0.871885853,13.30682413
32:00.6,1.42E+12,3.725453,-5.9757233,1.5958314,7.22045337,-0.698252965,-9.078240626,-0.849633129,13.07596519
32:00.7,1.42E+12,-0.17154327,0.43080413,13.084889,13.09310274,-0.629545841,-8.682002624,-0.465540869,12.92498944
32:00.7,1.42E+12,-7.7901006,-13.632601,9.237142,18.21697751,-0.695426845,-8.591039804,-0.192784055,12.90455893
32:00.7,1.42E+12,-6.602171,-16.905994,-0.88735473,18.171095,-0.785826865,-8.542693344,-0.31104413,12.86649202
32:00.7,1.42E+12,-2.6226962,-3.6771035,1.8522482,4.881644078,-0.794826151,-8.246618014,-0.378272332,12.57763011
32:00.7,1.42E+12,-4.0920405,-4.555028,8.659343,10.60553142,-0.934800073,-8.079173214,-0.24927957,12.52108058
32:00.8,1.42E+12,-3.9854622,-11.905493,13.515843,18.44729478,-1.077704903,-8.136632744,-0.027722314,12.69252781
32:00.8,1.42E+12,-2.9638367,-18.537151,6.1436744,19.7523424,-1.144280459,-8.401198558,0.034670942,12.96516253
32:00.8,1.42E+12,2.721341,-17.786911,-6.072273,18.99085041,-1.035322037,-8.709745912,-0.169573332,13.23517828
32:00.9,1.42E+12,7.874525,-15.626754,-8.058343,19.26500653,-0.760541437,-9.046536552,-0.377053884,13.49206401
32:00.9,1.42E+12,6.9567833,-18.010548,-4.7897396,19.89266897,-0.458999491,-9.502626132,-0.452083858,13.70018155
32:00.9,1.42E+12,4.4921584,-12.709171,-9.076226,16.25055054,-0.205310043,-9.875695326,-0.622606257,13.82246004
32:00.9,1.42E+12,1.7562977,-10.615175,-9.769434,14.53300941,-0.067413799,-10.13182769,-0.780803277,13.99536658
32:00.9,1.42E+12,1.9603235,-8.032895,-7.1838613,10.95345304,-0.037032976,-10.19451432,-0.724232923,13.99133173
32:00.9,1.42E+12,4.4791355,-4.870422,-9.664054,11.71228436,-0.056399706,-9.967981418,-0.555767263,13.7279142
32:00.9,1.42E+12,5.3789144,-2.2881417,-3.077151,6.605843689,-0.005766002,-9.791163112,-0.566221523,13.62466941
32:01.0,1.42E+12,2.3352938,-2.5253985,1.674418,3.825560136,0.080131374,-9.715178122,-0.806465943,13.39709826
32:01.0,1.42E+12,0.22528152,-1.3427079,-0.4487668,1.433529877,0.283734984,-9.39383236,-0.972671313,12.99495049
32:01.0,1.42E+12,-0.38544846,-2.899171,1.0925779,3.122096967,0.407509589,-9.178083,-1.036148315,12.74195855
32:01.0,1.42E+12,2.9530592,-14.849421,-1.4947915,15.2138182,0.572221073,-9.426081294,-1.194378277,12.87293844
32:01.0,1.42E+12,3.206931,-18.937569,-4.7499223,19.7857951,0.773432647,-9.679378554,-1.485379123,12.99857163
32:01.1,1.42E+12,-4.4180627,-19.493662,-6.671776,21.07213162,0.759652301,-9.739759994,-1.931622163,12.95960607
32:01.1,1.42E+12,-5.4827986,-19.539167,-1.3835728,20.34095379,0.649185016,-9.747373134,-1.991934741,12.98186631
32:01.1,1.42E+12,-3.4211357,-19.575394,3.4864,20.17560915,0.432606394,-9.778209014,-1.639325001,12.90365601
32:01.1,1.42E+12,-0.6331833,-16.216377,4.168681,16.75558729,0.254671408,-9.801156274,-1.511679445,12.89220653
32:01.1,1.42E+12,2.040407,-10.09845,1.6363971,10.43167046,0.143773028,-9.649377914,-1.397886077,12.70749064
32:01.2,1.42E+12,0.43454635,-7.123387,2.3306534,7.507557403,0.035272655,-9.501542354,-1.117264649,12.46678412
32:01.2,1.42E+12,-1.9212548,-3.203189,3.0018575,4.791950357,-0.009316622,-9.330618794,-0.840121979,12.24263586
32:01.2,1.42E+12,-4.7268705,0.060025178,2.8041189,5.496361574,-0.088693558,-9.176355584,-0.655876121,12.15235342
32:01.2,1.42E+12,-7.0235443,2.5767417,0.9032217,7.535620861,-0.259275826,-9.045288142,-0.477213657,12.12134116
32:01.2,1.42E+12,-6.992559,4.7180386,0.96175003,8.490037263,-0.472983422,-8.91543318,-0.314573868,12.12597672
32:01.3,1.42E+12,-4.9244595,2.7144554,-1.3548326,5.783955468,-0.590971065,-8.830951856,-0.362324568,12.20020285
32:01.3,1.42E+12,-0.52346146,-2.2941294,-11.243718,11.48730761,-0.601272643,-8.852040004,-0.629324328,12.38106811
32:01.3,1.42E+12,4.1257205,-13.758638,-18.413958,23.35370503,-0.522710015,-9.121440767,-1.003971246,12.83868278
32:01.3,1.42E+12,1.7636325,-7.3262153,1.420995,7.668315135,-0.506232281,-9.163395523,-0.967986079,12.88553489
32:01.3,1.42E+12,-0.25956023,-9.175769,14.913787,17.51237137,-0.613376478,-9.010949523,-0.613175899,12.88016932
32:01.4,1.42E+12,-7.2441854,-18.165773,7.5877213,20.97729833,-0.78635676,-8.990211643,-0.343053619,12.89685385
32:01.4,1.42E+12,-4.253555,-9.578133,3.1966026,10.95680748,-0.807325162,-8.819608423,-0.168295037,12.73186007
32:01.4,1.42E+12,-6.099366,-2.7282267,7.874824,10.32755245,-0.91293953,-8.489658557,-0.170330809,12.52179387
32:01.4,1.42E+12,-6.8389783,-8.874894,12.583432,16.84868329,-1.049755021,-8.314870037,0.014211423,12.50014285
32:01.4,1.42E+12,-3.4432898,-17.842148,11.323203,21.41059121,-1.194605805,-8.398453237,0.180952677,12.63850742
32:01.5,1.42E+12,1.513353,-19.344572,-4.966971,20.02931612,-1.253104157,-8.554536657,0.037320363,12.78786974
32:01.5,1.42E+12,7.424261,-16.0131,-11.418555,21.02195094,-1.120138663,-8.703955937,-0.233298881,13.03163674
32:01.6,1.42E+12,7.16036,-17.322428,-4.5517344,19.28874162,-0.903461247,-8.975611029,-0.387783625,13.29486426
32:01.6,1.42E+12,6.681356,-15.076498,-5.903873,17.51562235,-0.639209767,-9.277015251,-0.535870679,13.51114941
32:01.6,1.42E+12,3.8895118,-12.246932,-9.45883,15.95572344,-0.406806051,-9.581287507,-0.692064865,13.66140404
32:01.6,1.42E+12,2.0260367,-9.403445,-7.6050854,12.26241928,-0.226745497,-9.835195493,-0.8436726,13.75235923
32:01.6,1.42E+12,2.9928763,-6.5973806,-8.053702,10.83258304,-0.080834923,-9.973205498,-0.9706715,13.87625856
32:01.6,1.42E+12,4.288432,-3.3449442,-5.8944426,8.020209117,0.013585725,-9.923215462,-0.903317572,13.81745333
32:01.6,1.42E+12,2.1624033,-1.7753083,-0.11720627,2.800258006,-0.045023395,-9.626029488,-0.545211257,13.37247599
32:01.6,1.42E+12,0.60683805,-1.6920813,-1.3771362,2.264485738,-0.107395694,-9.540356648,-0.604670609,13.27335664
32:01.7,1.42E+12,0.17139359,-1.7797989,0.15313156,1.794577711,-0.100536957,-9.584568708,-0.863305758,13.04738614
32:01.7,1.42E+12,0.97058165,-10.403516,-3.4988241,11.0189357,0.074676688,-9.519987008,-1.11802508,12.9034253
32:01.7,1.42E+12,2.942581,-18.332827,-3.0355375,18.81397929,0.265571728,-9.548523668,-1.160988736,12.91628299
32:01.7,1.42E+12,-4.0222855,-19.411333,-7.9623923,21.36301291,0.237579942,-9.863208258,-1.357281546,13.24591036
32:01.7,1.42E+12,-3.600463,-19.002983,-1.2252022,19.37983016,0.247411492,-10.15216736,-1.55497245,13.42139634
32:01.8,1.42E+12,-2.5795858,-19.502495,6.4041324,20.68851096,0.27552902,-10.3041074,-1.697206662,13.46622066
32:01.8,1.42E+12,2.2776635,-15.385756,4.0499783,16.07207401,0.380359024,-10.2410795,-1.739080584,13.3926153
32:01.8,1.42E+12,4.412674,-9.213341,1.8064435,10.37403404,0.414185684,-10.0696081,-1.581506254,13.22027897
32:01.8,1.42E+12,2.5146208,-6.358927,2.5735981,7.306345019,0.3069876,-9.884251558,-1.368867432,12.98110574
32:01.8,1.42E+12,-1.1144326,-3.0244606,3.458109,4.727350188,0.145563282,-9.58452981,-1.20391046,12.67779936
32:01.9,1.42E+12,-6.6907864,0.20402573,2.7773244,7.247191178,-0.078095614,-9.326265876,-0.966839452,12.49773217
32:01.9,1.42E+12,-9.289233,3.2033386,0.61537033,9.845298805,-0.299006228,-9.049895604,-0.759143365,12.40397796
32:01.9,1.42E+12,-8.397238,4.7692323,2.3281088,9.933744176,-0.506157458,-8.793853058,-0.568903963,12.38358379
32:01.9,1.42E+12,-6.1319985,3.384013,-0.06780899,7.00410934,-0.718380138,-8.628764358,-0.376979063,12.28942028
32:01.9,1.42E+12,-0.4752617,-2.2182372,-10.264455,10.51215898,-0.83546366,-8.627366268,-0.520725143,12.36754659
32:02.0,1.42E+12,4.748126,-13.105397,-18.236427,22.9535052,-0.787207016,-8.838966238,-0.918942043,12.75010549
32:02.0,1.42E+12,0.8089178,-7.322024,4.345314,8.552668427,-0.77553429,-8.95855256,-0.823060427,12.89248826
32:02.0,1.42E+12,-1.7551003,-10.09396,15.744859,18.78480744,-0.802927327,-9.10244834,-0.530014805,13.20574247
32:02.0,1.42E+12,-6.4652057,-18.290615,7.646848,20.85233239,-0.991292625,-9.17127222,-0.347182015,13.31851276
32:02.0,1.42E+12,-1.833088,-9.2504635,0.033230897,9.430397175,-1.092093005,-8.97753011,-0.251518951,13.1114048
32:02.1,1.42E+12,-2.7798693,-2.8536658,7.3034625,8.31935372,-1.059329137,-8.644730186,0.027985819,12.85634924
32:02.1,1.42E+12,-3.9140606,-9.710756,11.178305,15.31578125,-1.027954377,-8.448161966,0.279223375,12.75584579
32:02.1,1.42E+12,-2.084715,-17.929415,7.6544824,19.60614852,-1.001225963,-8.415242386,0.362585023,12.74445658
32:02.2,1.42E+12,2.9885354,-19.341429,-3.4181418,19.86720697,-0.928791589,-8.477743426,0.210848567,12.80668897
32:02.2,1.42E+12,7.175778,-15.890356,-5.86181,18.39445624,-0.826084169,-8.593581546,0.060884425,12.96594469
32:02.2,1.42E+12,6.674171,-17.022602,-4.6692405,18.87101863,-0.701291676,-8.791565846,-0.079113453,13.19321391
32:02.2,1.42E+12,5.1980906,-14.907799,-7.1838613,17.34561847,-0.558904768,-9.025658046,-0.282827829,13.44428727
32:02.2,1.42E+12,0.67135394,-11.746673,-10.64661,15.8677455,-0.450940279,-9.261792009,-0.551842407,13.65171495
32:02.2,1.42E+12,0.17588425,-9.013506,-6.592591,11.16854878,-0.306951708,-9.493596963,-0.701758661,13.72437351
32:02.2,1.42E+12,2.4360342,-6.4676003,-8.457263,10.92196931,-0.118379844,-9.717309741,-0.890138921,13.77301215
32:02.3,1.42E+12,4.522096,-3.8740938,-6.2842317,8.65733926,0.070551266,-9.849080725,-0.988726903,13.83047983
32:02.3,1.42E+12,2.6301806,-2.0152593,1.221909,3.531597604,0.133624107,-9.843503323,-0.739414363,13.67136563
32:02.3,1.42E+12,0.62480074,-1.2569362,-0.4272116,1.467233562,0.063605712,-9.593469287,-0.379679435,13.2336362
32:02.3,1.42E+12,-0.60144925,-1.7332457,-0.57899594,1.923829035,0.016304077,-9.481609895,-0.419679254,13.11874647
32:02.3,1.42E+12,-0.102536775,-9.060958,-0.5445676,9.077886733,0.019444546,-9.479313675,-0.728846346,12.95005678
32:02.4,1.42E+12,4.9657736,-18.102905,-1.9426602,18.871884,0.263643726,-9.478056315,-0.919453976,12.9079485
32:02.4,1.42E+12,-3.646118,-19.380049,-6.4536796,20.74922784,0.275792466,-9.674094635,-1.11245962,13.1037969
32:02.4,1.42E+12,-6.205496,-19.193388,-2.780468,20.36235069,0.273669866,-10.00339786,-1.32556546,13.30449287
32:02.4,1.42E+12,-2.9741652,-19.52839,7.413334,21.09884347,0.350966128,-10.21646778,-1.42896742,13.38949607
32:02.5,1.42E+12,0.2230362,-15.880177,4.1103024,16.40500998,0.424292648,-10.17722836,-1.573225432,13.28938445
32:02.5,1.42E+12,2.5656648,-10.515333,2.3757098,11.08146475,0.445338884,-10.00064358,-1.426371816,13.11042742
32:02.5,1.42E+12,1.357527,-6.8023047,2.2116508,7.280496415,0.324004204,-9.816427675,-1.1537677,12.83559833
32:02.5,1.42E+12,-1.9916084,-3.9061272,2.7026298,5.150586526,0.140964836,-9.548101659,-1.008680416,12.55283523
32:02.5,1.42E+12,-5.276078,-0.445773,2.473606,5.844179949,-0.098183844,-9.255487159,-0.841130836,12.31940638
32:02.5,1.42E+12,-7.633975,3.0428724,0.27108628,8.222538204,-0.32865358,-8.949691071,-0.646532511,12.16474267
32:02.6,1.42E+12,-7.6920543,5.2672467,0.33904496,9.328801565,-0.5230154,-8.656277237,-0.487649903,12.10607032
32:02.6,1.42E+12,-5.1245933,4.7937813,-0.5373825,7.037796217,-0.685364792,-8.428453999,-0.337323513,12.03017458
32:02.6,1.42E+12,-0.6686595,1.6747174,-7.335496,7.553892074,-0.784506622,-8.328060767,-0.366144581,12.02084824
32:02.6,1.42E+12,4.612658,-8.738379,-17.084871,19.73648141,-0.735501528,-8.467322181,-0.705497876,12.35957271
32:02.6,1.42E+12,2.5984466,-6.8918185,-7.5444613,10.54362287,-0.695669357,-8.571316925,-0.828844378,12.52515545
32:02.7,1.42E+12,-2.2305117,-2.6276357,11.809392,12.3020889,-0.743707463,-8.588273661,-0.595719169,12.73530568
32:02.7,1.42E+12,-7.2393956,-16.45633,13.5080595,22.48749246,-0.907907008,-8.709329941,-0.255581497,12.96467681
32:02.7,1.42E+12,-5.4143906,-18.343454,-4.725972,19.70108478,-1.07504644,-8.709542481,-0.289390187,12.98241892
32:02.7,1.42E+12,-2.3793023,-1.2241544,-0.4206253,2.708608328,-1.042186776,-8.345798909,-0.138554847,12.60933083
32:02.7,1.42E+12,-5.2997293,-3.9175036,10.138118,12.09195607,-1.076172102,-8.044089321,0.088711557,12.46357335
32:02.8,1.42E+12,-2.3022125,-15.336957,18.079103,23.8196641,-1.070624636,-7.960778561,0.322210969,12.52619641
32:02.8,1.42E+12,-0.042062532,-19.003881,3.3260834,19.292799,-1.117019157,-8.033141061,0.307733071,12.59061091
32:02.8,1.42E+12,6.1819944,-17.029188,-11.908337,21.67991672,-1.081632749,-8.189458001,0.033437461,12.81672856
32:02.8,1.42E+12,8.148306,-16.106655,-2.8602521,18.27567422,-0.968959045,-8.384412561,-0.075239543,13.03611515
32:02.8,1.42E+12,7.26619,-17.56627,-3.4992733,19.32915602,-0.801346593,-8.675248749,-0.214387189,13.32815127
32:02.9,1.42E+12,5.365293,-13.812976,-9.234447,17.46023157,-0.560225005,-8.955588784,-0.454622617,13.53241207
32:02.9,1.42E+12,2.2680836,-9.864187,-11.393407,15.23995116,-0.329078673,-9.216939296,-0.694798164,13.64030512
32:02.9,1.42E+12,1.3584251,-8.390951,-6.2821364,10.5697027,-0.133965411,-9.480142962,-0.867003068,13.65302429
32:02.9,1.42E+12,2.8334577,-6.329887,-8.229437,10.76195081,0.045343713,-9.674420962,-1.030235628,13.72818112
32:02.9,1.42E+12,3.9992335,-3.9255867,-5.3461328,7.745013586,0.134833617,-9.708567952,-0.931869184,13.67283821
32:03.0,1.42E+12,3.4802628,-1.977388,0.556842,4.041332141,0.109476353,-9.486007772,-0.556003804,13.29459475
32:03.0,1.42E+12,1.886527,-1.6991167,-1.0127939,2.733447121,0.131028537,-9.373549626,-0.663165962,13.17821032
32:03.0,1.42E+12,-0.36973113,-0.9871971,-1.8200651,2.103306015,0.158735921,-9.191414368,-1.014464444,12.8445803
32:03.0,1.42E+12,-1.2247531,-6.0179358,-0.5019063,6.16177583,0.263544973,-8.945960784,-1.17743953,12.55076917
32:03.0,1.42E+12,3.3278797,-16.824413,-1.9896625,17.26541088,0.366764327,-9.097439774,-1.217897398,12.70746944
32:03.1,1.42E+12,-0.34413436,-19.20611,-5.8026834,20.06649507,0.415479026,-9.424488658,-1.480020316,12.94241227
32:03.1,1.42E+12,-5.690866,-19.280207,-5.26575,20.78077142,0.379942918,-9.615877678,-1.808901416,13.05171207
32:03.1,1.42E+12,-3.4889448,-19.498753,4.825216,20.38766328,0.351858322,-9.647264438,-1.865486744,13.06734236
32:03.1,1.42E+12,-1.0166858,-19.26898,3.9344184,19.69281312,0.271753898,-9.645815458,-1.71843554,13.06385449
32:03.1,1.42E+12,2.4574397,-16.060102,4.4108777,16.83513375,0.177387132,-9.649210378,-1.512981786,13.03266804
32:03.2,1.42E+12,3.0428724,-10.684482,1.5612533,11.2184999,0.10476116,-9.522447978,-1.38837191,12.87961766
32:03.2,1.42E+12,0.83152086,-7.996521,2.2501209,8.348581862,0.017429765,-9.384222418,-1.199692266,12.69967693
32:03.2,1.42E+12,-2.124083,-3.4988241,1.6251705,4.403938899,-0.038478974,-9.21926544,-0.954256656,12.4704008
32:03.2,1.42E+12,-5.738916,0.78721297,0.3900888,5.805775606,-0.156774979,-9.023251061,-0.81460306,12.36314534
32:03.2,1.42E+12,-8.091574,3.953279,-2.9981153,9.491611033,-0.367327143,-8.814833475,-0.705420106,12.33453817
32:03.3,1.42E+12,-8.469687,4.768783,-2.9273126,10.15115995,-0.627162803,-8.641975939,-0.638281724,12.36441458
32:03.3,1.42E+12,-4.2685237,2.4604335,0.4682263,4.949066928,-0.765136889,-8.552462083,-0.653355378,12.39276397
32:03.3,1.42E+12,0.29668304,-2.5724006,-6.0227256,6.555798146,-0.771699243,-8.578771371,-0.765265658,12.49453526
32:03.3,1.42E+12,7.8150983,-12.945979,-17.13876,22.85631703,-0.603368292,-8.803026037,-1.096460939,12.91318502
32:03.3,1.42E+12,2.8369007,-6.762038,1.2522959,7.439180635,-0.544579542,-8.757047637,-1.060523669,12.8804109
32:03.4,1.42E+12,-4.6840596,-9.426048,11.175461,15.35192899,-0.737576206,-8.583510497,-0.798161245,12.8100118
32:03.4,1.42E+12,-7.1787715,-15.819553,8.913065,19.52525915,-0.808229276,-8.512300577,-0.490826353,12.78553243
32:03.4,1.42E+12,-7.192992,-11.58935,5.7284374,14.79415974,-0.827979196,-8.360219817,-0.320648245,12.67416861
32:03.4,1.42E+12,-6.0872416,-6.9590287,6.2902193,11.18255112,-0.890240724,-8.108832591,-0.343110539,12.47584276
32:03.5,1.42E+12,-3.3533268,-13.917608,10.889854,17.98703792,-0.961767984,-8.069581211,-0.207519507,12.50748332
32:03.5,1.42E+12,1.6325052,-18.79731,6.3643155,19.91251989,-0.980431176,-8.235220751,-0.127747393,12.68410442
32:03.5,1.42E+12,6.9711533,-18.479671,-10.327923,22.28814062,-0.86815865,-8.468768077,-0.378538869,12.98425731
32:03.5,1.42E+12,7.9986167,-15.498172,-1.5088623,17.50565251,-0.668354148,-8.700608973,-0.462768711,13.23135863
32:03.5,1.42E+12,5.6025496,-17.998123,-2.0905526,18.96553199,-0.450781596,-9.051655973,-0.554051883,13.49378567
32:03.5,1.42E+12,5.7992406,-18.74447,-5.6336846,20.4138372,-0.182117284,-9.487402821,-0.672147301,13.73761165
32:03.6,1.42E+12,2.8422894,-14.521303,-12.369827,19.2862508,0.02856959,-9.883173815,-0.92632474,13.93676063
32:03.6,1.42E+12,-0.61252624,-10.977273,-9.225466,14.35217523,0.118810931,-10.1985949,-1.10008641,14.08304821
32:03.6,1.42E+12,-0.69725007,-7.1206923,-7.0745883,10.06181972,0.118239119,-10.37450309,-1.094868256,14.13320676
32:03.6,1.42E+12,2.132615,-4.069587,-8.202493,9.401620951,0.068638259,-10.28112725,-0.917220696,13.92650955
32:03.6,1.42E+12,4.1367974,-1.3895603,-2.523153,5.040860206,0.099405275,-10.17108209,-0.81679453,13.8164543
32:03.7,1.42E+12,2.782414,-1.3076806,0.16630417,3.078881826,0.199663789,-10.14468299,-1.049656287,13.63199016
32:03.7,1.42E+12,1.1123369,-1.2135265,-1.6302599,2.316826987,0.366698439,-9.839826919,-1.352422675,13.22857685
32:03.7,1.42E+12,-0.65638506,-4.3081913,-0.2031276,4.362638473,0.46185855,-9.559121665,-1.261965787,12.92180792
32:03.7,1.42E+12,1.6148419,-15.5778055,-1.3374687,15.71828747,0.541741434,-9.846194687,-1.280302655,13.18200151
32:03.8,1.42E+12,-1.8127304,-19.036663,-4.5535307,19.6574457,0.611481412,-10.14857787,-1.574135629,13.3333113
32:03.8,1.42E+12,-6.9599266,-19.055674,-5.911806,21.13075342,0.51832713,-10.22295221,-2.053953809,13.27953309
32:03.8,1.42E+12,-3.5075061,-19.452349,1.5389497,19.82586308,0.449018259,-10.23192157,-2.089696483,13.29019437
32:03.8,1.42E+12,-3.3367112,-19.262693,5.9652452,20.4394015,0.258644147,-10.27659167,-1.732224839,13.26538406
32:03.8,1.42E+12,1.3870157,-15.918647,6.0565553,17.08827074,0.123418341,-10.27283151,-1.553888691,13.24163599
32:03.8,1.42E+12,4.27511,-9.286838,2.6340723,10.55747424,0.063596741,-10.10724287,-1.431221779,13.06620236
32:03.9,1.42E+12,2.2763164,-7.0284843,2.3911276,7.7652237,0.001817209,-9.971553041,-1.198710287,12.8723022
32:03.9,1.42E+12,-0.37182677,-3.4405951,2.9355454,4.537992572,-0.050980999,-9.843081203,-0.912131239,12.65826303
32:03.9,1.42E+12,-4.6886997,-0.56432647,1.9428099,5.106552609,-0.171923495,-9.686548712,-0.747632313,12.54900003
32:03.9,1.42E+12,-7.0880604,3.067122,0.18501526,7.725417027,-0.370353857,-9.498608532,-0.579343267,12.48826935
32:03.9,1.42E+12,-7.172485,5.4607944,0.98929274,9.06882113,-0.593788227,-9.31088091,-0.452634757,12.5147455
32:04.0,1.42E+12,-4.9418235,4.8570995,0.56911653,6.952476442,-0.762229953,-9.17419116,-0.452389266,12.57296839
32:04.0,1.42E+12,0.036524046,0.08741821,-10.158924,10.15936577,-0.799230012,-9.138460462,-0.635311868,12.72148676
32:04.0,1.42E+12,4.8124924,-9.961036,-18.149458,21.25523811,-0.695585541,-9.31793724,-0.961899726,13.1045254
32:04.0,1.42E+12,-0.19459534,-4.7071114,3.0270052,5.599779063,-0.674982386,-9.291720752,-0.891321496,13.09328547
32:04.0,1.42E+12,-3.0524523,-1.2220588,15.350578,15.6987623,-0.802589026,-8.979673668,-0.544516686,13.0619525
32:04.1,1.42E+12,-7.27577,-15.099999,11.871364,20.53962225,-0.941221739,-8.897551448,-0.191035738,13.07141504
32:04.1,1.42E+12,-8.43481,-18.95658,-0.62554914,20.75787216,-0.996100619,-8.891078908,-0.098231721,13.07095705
32:04.1,1.42E+12,-1.194516,-6.5410976,-2.5851243,7.134121805,-0.950212043,-8.6319258,-0.246438527,12.80588623
32:04.1,1.42E+12,-1.9188597,-7.475904,8.521929,11.49758397,-0.968255521,-8.39606428,-0.154688315,12.64198164
32:04.1,1.42E+12,0.7450008,-16.780704,13.977633,21.85226023,-1.002504299,-8.41047632,0.036646791,12.74232417
32:04.2,1.42E+12,1.4768289,-19.200274,3.7016523,19.60953276,-1.033825169,-8.58079216,0.079454771,12.91014483
32:04.2,1.42E+12,4.3132806,-17.194593,-6.7817974,18.98028435,-0.964189974,-8.7647536,-0.101183595,13.12277888
32:04.2,1.42E+12,5.1645603,-18.643282,-6.906488,20.54128096,-0.818417108,-9.067642758,-0.271816765,13.44552572
32:04.2,1.42E+12,4.4108777,-18.050215,-6.342012,19.63382846,-0.615421234,-9.444391317,-0.406458781,13.72208678
32:04.3,1.42E+12,-0.09969269,-13.280084,-12.083921,17.95526988,-0.455583608,-9.789058577,-0.588174895,13.89135995
32:04.3,1.42E+12,-1.0889854,-10.311308,-9.322015,13.94306012,-0.307969576,-10.0906604,-0.716068943,13.96719796
32:04.3,1.42E+12,0.6753955,-7.715555,-5.792055,9.671289943,-0.209091192,-10.29418017,-0.841274569,14.06164242
32:04.3,1.42E+12,4.399052,-5.2602115,-8.531508,10.94568921,-0.127043812,-10.34793639,-0.891450217,14.14944024
32:04.3,1.42E+12,5.9704843,-3.0115874,-3.6036062,7.596204255,-0.163936092,-10.14924855,-0.620747141,13.84423798
32:04.3,1.42E+12,3.0633798,-1.8952088,1.497935,3.901271775,-0.15940651,-10.05191197,-0.615834359,13.77347981
32:04.4,1.42E+12,0.13861175,-1.4311738,-0.8887019,1.690343968,-0.062953083,-9.892014485,-0.857117617,13.50024811
32:04.4,1.42E+12,-1.9185604,-1.2620256,-1.5040723,2.745144096,0.042251139,-9.600863937,-1.065460363,13.1646458
32:04.5,1.42E+12,-1.7579443,-7.967781,-4.1341033,9.146950985,0.150952093,-9.528432557,-1.262711177,13.05170163
32:04.5,1.42E+12,1.2063414,-17.698895,-5.0265474,18.43833839,0.296823753,-9.743229883,-1.489046511,13.19681738
32:04.5,1.42E+12,-2.6056316,-19.325113,-5.3187394,20.21233033,0.311777657,-9.851379983,-1.813218379,13.24132322
32:04.5,1.42E+12,-3.5925293,-19.485878,-0.55938673,19.822175,0.207276967,-9.865151343,-1.951692423,13.23951633
32:04.5,1.42E+12,1.4115646,-19.011366,4.9864306,19.70505118,0.096085193,-9.875785243,-1.645405351,13.18785454
32:04.5,1.42E+12,1.5497273,-12.0711975,4.4887156,12.97166264,-0.032892595,-9.807245753,-1.525453793,13.09717474
32:04.5,1.42E+12,3.4696348,-9.239686,3.2850688,10.40201135,-0.075550891,-9.632077013,-1.417941365,12.92590433
32:04.5,1.42E+12,2.5661137,-7.2322106,2.635719,8.113989421,-0.140213429,-9.401831825,-1.252553293,12.67990737
32:04.6,1.42E+12,-0.11496094,-3.5100508,2.9789553,4.605197858,-0.199358436,-9.181606781,-0.945577647,12.38628631
32:04.6,1.42E+12,-4.7548623,0.121996306,1.3090279,4.933269974,-0.282205157,-8.959621395,-0.734887769,12.19790821
32:04.6,1.42E+12,-6.4899044,2.8651917,-0.3835025,7.104594061,-0.398058244,-8.759903715,-0.601066053,12.13876369
32:04.6,1.42E+12,-5.5976095,4.6836104,2.446213,7.697622785,-0.552662734,-8.584839767,-0.388091933,12.10468373
32:04.6,1.42E+12,-5.785918,2.0104692,0.50130755,6.14574184,-0.751117042,-8.516839177,-0.327602722,12.12678136
32:04.7,1.42E+12,-3.6932697,-3.1831307,-9.7377,10.89014983,-0.880630716,-8.554348179,-0.525682806,12.28300672
32:04.7,1.42E+12,2.3043082,-16.218922,-18.176401,24.46926277,-0.85679129,-8.854456089,-0.856605628,12.72605544
32:04.7,1.42E+12,1.0892848,-6.555019,7.022946,9.668329017,-0.821877893,-8.899392643,-0.712084156,12.83216925
32:04.7,1.42E+12,-1.5819104,1.0078541,15.143409,15.25912994,-0.885812939,-8.567679451,-0.382466602,12.8229861
32:04.8,1.42E+12,-8.457712,-15.079791,10.418485,20.18607982,-1.018712571,-8.488542011,-0.083026288,12.83355878
32:04.8,1.42E+12,-7.096293,-15.637681,-0.064964905,17.17261372,-1.021439899,-8.420182151,0.033910534,12.75439599
32:04.8,1.42E+12,0.052091673,-5.333559,1.6661851,5.587999457,-0.950247943,-8.137806351,0.036455242,12.46963872
32:04.8,1.42E+12,1.5703844,-13.989908,11.2760515,18.03698895,-0.852106031,-8.032350651,0.142671368,12.42159046
32:04.8,1.42E+12,2.2751188,-18.659298,7.8775187,20.38138534,-0.834343969,-8.087163671,0.179090636,12.48745276
32:04.8,1.42E+12,1.7890795,-18.829643,-6.146518,19.88808549,-0.884064579,-8.278019771,0.00347883,12.67406498
32:04.9,1.42E+12,3.496579,-16.11923,-6.334976,17.66883022,-0.859659327,-8.459834685,-0.171043242,12.87213711
32:04.9,1.42E+12,2.2109025,-16.578325,-4.5502377,17.33302088,-0.808004742,-8.722589283,-0.320758904,13.12803768
32:04.9,1.42E+12,1.2027489,-17.036074,-5.267097,17.87223358,-0.69017577,-9.052024234,-0.464957042,13.3833513
32:04.9,1.42E+12,-4.456233,-13.117672,-13.540093,19.3717694,-0.637539222,-9.375720114,-0.739459207,13.61627834
32:04.9,1.42E+12,-2.516417,-9.802067,-11.570639,15.37181053,-0.544417862,-9.680977342,-0.990657842,13.74233813
32:05.0,1.42E+12,-0.21345611,-6.916966,-7.8653936,10.47637335,-0.449850514,-9.916458652,-1.159348045,13.81281607
32:05.0,1.42E+12,2.4276516,-3.3491354,-4.97236,6.467964455,-0.402027963,-9.985189724,-1.055616765,13.73898804
32:05.0,1.42E+12,4.434229,0.105680235,-0.37062928,4.450946102,-0.409593231,-9.783855399,-0.70004019,13.4029022
32:05.0,1.42E+12,3.4426908,-0.5510042,-2.0483406,4.043689502,-0.336847508,-9.700733255,-0.801547106,13.37178041
32:05.1,1.42E+12,0.6771918,-0.41957748,-1.3157638,1.538137956,-0.262254626,-9.684683629,-1.134873942,13.08856793
32:05.1,1.42E+12,0.2920427,-3.0644274,0.74395293,3.166933878,-0.110898372,-9.443972197,-1.357422164,12.74111416
32:05.1,1.42E+12,1.6627423,-14.072087,-5.8091197,15.31450999,0.091052674,-9.346282337,-1.461093575,12.63224692
32:05.1,1.42E+12,2.291435,-18.83174,-1.7916243,19.05505244,0.160771694,-9.592095185,-1.445223575,12.87066553
32:05.1,1.42E+12,-2.0818708,-19.479292,-8.944051,21.53539067,0.157511472,-9.832162945,-1.794543175,13.07142166
32:05.1,1.42E+12,-1.1270064,-19.560574,5.601801,20.37808561,0.120071328,-9.887760345,-1.962059815,13.04193817
32:05.2,1.42E+12,-2.775229,-19.048489,4.525988,19.77451381,0.03503017,-9.884724645,-1.945573101,13.04523779
32:05.2,1.42E+12,2.6084757,-14.084211,3.3310232,14.70594643,0.000934072,-9.822517005,-1.743316689,12.95975103
32:05.2,1.42E+12,3.5694773,-10.931169,1.8368303,11.64498044,-0.030967588,-9.668274745,-1.568450323,12.78182502
32:05.2,1.42E+12,0.7325766,-8.124954,1.2909155,8.259419399,-0.10453361,-9.469769525,-1.415791773,12.55433684
32:05.2,1.42E+12,-2.741998,-4.5122166,1.572929,5.509333654,-0.157379717,-9.294412177,-1.142654773,12.30541812
32:05.3,1.42E+12,-4.9922686,-1.7678238,0.728535,5.345905911,-0.235445381,-9.123542493,-0.941643773,12.13347503
32:05.3,1.42E+12,-6.690038,1.2948074,-1.1482621,6.910256182,-0.382754051,-8.943335245,-0.848767915,12.07825436
32:05.3,1.42E+12,-8.067324,3.8941522,0.89424044,9.002544298,-0.632081571,-8.760247971,-0.660252946,12.03939146
32:05.3,1.42E+12,-7.0941978,2.3306534,-1.1400293,7.553757641,-0.893375213,-8.653403155,-0.610981408,12.03854253
32:05.3,1.42E+12,-3.8863683,-0.7946974,-6.377039,7.510128423,-1.032370175,-8.631392927,-0.768480888,12.11071966
32:05.4,1.42E+12,1.2888199,-13.681998,-16.803457,21.70747091,-1.009366012,-8.876409411,-1.08677599,12.5110622
32:05.5,1.42E+12,4.504433,-12.279565,-5.6699095,14.2557184,-0.880906144,-9.096760199,-1.170092734,12.74127368
32:05.5,1.42E+12,-0.27303222,-5.0907636,12.431798,13.43651823,-0.851207902,-9.039219851,-0.838774708,12.82706503
32:05.5,1.42E+12,-4.340374,-15.526163,6.1140356,17.24186809,-0.96214221,-8.995765211,-0.615963048,12.80313562
32:05.5,1.42E+12,-6.331833,-15.880028,5.9011784,18.08566573,-1.036666238,-8.926863511,-0.391564692,12.76060233
32:05.5,1.42E+12,-5.51573,-5.450166,6.727011,10.26548897,-1.075130252,-8.646149271,-0.245836737,12.56946861
32:05.5,1.42E+12,-5.2681446,-9.66076,10.255324,15.04178519,-1.208724436,-8.459137151,-0.140458869,12.47620329
32:05.5,1.42E+12,-3.167563,-16.565002,8.694071,18.97418291,-1.303070242,-8.549013241,-0.056351761,12.5962537
32:05.5,1.42E+12,0.09490265,-19.170935,-9.98783,21.61690319,-1.370564885,-8.747638221,-0.321809737,12.82055153
32:05.5,1.42E+12,8.13648,-17.053587,-6.529422,19.9915104,-1.259157559,-8.944065749,-0.505112557,13.05810195
32:05.6,1.42E+12,7.9828997,-15.810422,-0.6030958,17.721734,-1.097200346,-9.190073173,-0.576753579,13.32043268
32:05.6,1.42E+12,4.557722,-17.856218,-5.1913548,19.14595299,-0.91094866,-9.549637459,-0.706761233,13.60468634
32:05.6,1.42E+12,2.2607489,-15.7185135,-5.417235,16.77882854,-0.735935594,-9.921311563,-0.807435883,13.79817103
32:05.6,1.42E+12,-2.2679338,-11.111094,-10.354867,15.3565362,-0.66934208,-10.23720565,-1.063457483,13.95134929
32:05.6,1.42E+12,-2.3417304,-8.563393,-8.044122,11.98012102,-0.600458328,-10.44868289,-1.234366074,14.06803688
32:05.7,1.42E+12,-1.8745519,-6.4517336,-8.213869,10.61161888,-0.564083972,-10.51405495,-1.203889454,14.06246626
32:05.7,1.42E+12,-0.084873505,-3.8772373,-7.458989,8.406942934,-0.611867606,-10.26722126,-0.989541214,13.74121986
32:05.7,1.42E+12,2.058669,-0.20492385,-0.68467623,2.17919558,-0.592479922,-10.14021936,-1.143693659,13.59143719
32:05.8,1.42E+12,2.331851,-0.72239774,0.3293152,2.463297806,-0.514204694,-10.17482439,-1.439975535,13.33552055
32:05.8,1.42E+12,0.8716374,-1.0921289,-0.8643027,1.643020526,-0.327617706,-9.895071151,-1.665631289,12.96465936
32:05.8,1.42E+12,1.2295432,-7.904463,-3.4367034,8.706505732,-0.161100982,-9.740406791,-1.733066059,12.7953372
32:05.8,1.42E+12,3.761977,-17.992884,0.82463515,18.4004448,-0.086903276,-9.993593291,-1.749897058,13.05158611
32:05.8,1.42E+12,-2.6547294,-19.36508,-6.163433,20.49492176,-0.171405552,-10.10109673,-2.098686748,13.10074477
32:05.8,1.42E+12,-3.3290772,-19.452948,-7.1956863,21.00661425,-0.283489472,-10.11696973,-2.400150848,13.11324935
32:05.8,1.42E+12,-0.88690567,-19.563717,7.955656,21.13807198,-0.337009175,-10.13165121,-2.118107368,13.13824908
32:05.9,1.42E+12,-2.1481829,-18.203945,5.9411454,19.26902987,-0.449904413,-10.17334551,-1.87258494,13.17025307
32:05.9,1.42E+12,3.0856833,-11.932885,3.3301249,12.76733793,-0.432408797,-10.08043671,-1.714977688,13.07893941
32:05.9,1.42E+12,2.0921993,-8.568481,2.908901,9.287511485,-0.414619789,-9.911084851,-1.551457728,12.90724497
32:05.9,1.42E+12,-0.068407744,-6.1674747,2.909799,6.819776684,-0.326863284,-9.772080905,-1.222459888,12.65620511
32:05.9,1.42E+12,-2.3848407,-3.7386255,3.2693512,5.509395889,-0.324231758,-9.650812075,-0.925660084,12.45895682
32:06.0,1.42E+12,-5.7348742,-1.271456,0.9428893,5.949321195,-0.43466012,-9.537901875,-0.749494426,12.36841578
32:06.0,1.42E+12,-8.814869,1.6548088,-0.9259744,9.01652573,-0.659510532,-9.437822991,-0.668566714,12.419387
32:06.0,1.42E+12,-9.691297,4.051475,1.1380833,10.5655535,-0.942021052,-9.358907095,-0.638392462,12.54167915
32:06.1,1.42E+12,-7.1727843,2.92866,-3.1778915,8.374059851,-1.154330554,-9.289313811,-0.66098348,12.62828656
32:06.1,1.42E+12,-2.2249732,-0.77957886,-10.304571,10.57082932,-1.212373854,-9.296513839,-0.840759624,12.80894038
32:06.1,1.42E+12,-0.0981958,-5.630691,-7.821086,9.637619508,-1.220178624,-9.347839111,-1.012060403,12.9383541
32:06.1,1.42E+12,-1.2440629,-1.7902771,9.873618,10.11143496,-1.278314728,-9.102202913,-0.698405649,12.8342926
32:06.1,1.42E+12,0.1061293,-12.905113,11.966116,17.59946411,-1.322020842,-8.983670373,-0.423250843,12.80518083
32:06.1,1.42E+12,-2.5830286,-18.673069,-1.9594253,18.95243758,-1.332043998,-8.967545913,-0.283558329,12.75352177
32:06.1,1.42E+12,1.432072,-10.545421,-0.97776675,10.68703711,-1.28086243,-8.787242853,-0.415149684,12.5597008
32:06.2,1.42E+12,-3.3617094,-3.0717623,5.4741163,7.120587264,-1.292592038,-8.467708319,-0.396187118,12.30662227
32:06.2,1.42E+12,-4.2719665,-8.346194,11.338621,14.7130207,-1.430200882,-8.352947979,-0.236035162,12.30676375
32:06.2,1.42E+12,-3.6836898,-14.352604,7.340585,16.5363539,-1.575264224,-8.421376679,-0.125960068,12.40459122
32:06.2,1.42E+12,-0.7234456,-18.603165,-2.4297473,18.77511101,-1.604384668,-8.630940899,-0.200373324,12.61490505
32:06.2,1.42E+12,6.685248,-16.500637,-8.086035,19.55370871,-1.415839748,-8.870709307,-0.393552604,12.89579256
32:06.3,1.42E+12,7.629484,-17.381704,-6.4375134,20.04430689,-1.163404696,-9.182986911,-0.536873572,13.18976058
32:06.3,1.42E+12,5.1485434,-16.608562,-6.0342517,18.40554331,-0.926633068,-9.541054299,-0.634593364,13.41966632
32:06.3,1.42E+12,-0.6065387,-12.206367,-10.046957,15.8210186,-0.777417362,-9.863064683,-0.853417313,13.5560358
32:06.3,1.42E+12,0.033081207,-9.802666,-9.052575,13.34325557,-0.634871782,-10.10573107,-1.011668227,13.67182576
32:06.3,1.42E+12,1.9143691,-7.510482,-9.385932,12.17242246,-0.518857034,-10.24004676,-1.071846087,13.76507164
32:06.4,1.42E+12,3.7068915,-4.648134,-6.393954,8.730913012,-0.470495602,-10.05936948,-0.863656027,13.50554049
32:06.4,1.42E+12,1.280587,-2.920876,0.5090913,3.229642956,-0.534972522,-9.872195703,-0.740076011,13.28501898
32:06.4,1.42E+12,-0.8288264,-2.8569589,1.4076728,3.291004417,-0.546088405,-9.827519609,-0.960558515,13.0821087
32:06.4,1.42E+12,-0.7231462,-3.0365853,0.40865022,3.14814004,-0.473743849,-9.577728055,-1.074666222,12.80023414
32:06.4,1.42E+12,-0.6984476,-15.408359,-3.0548475,15.7237861,-0.361076141,-9.568294675,-1.25378674,12.75299655
32:06.5,1.42E+12,-4.529431,-19.01361,-5.329667,20.25928085,-0.341350161,-9.839563555,-1.4949203,12.95287238
32:06.5,1.42E+12,-4.6622047,-19.187998,-7.2438865,21.03305283,-0.329231363,-10.03010832,-1.84490451,13.07269774
32:06.5,1.42E+12,-1.2042458,-19.470312,1.8844314,19.5983249,-0.289965019,-10.08821452,-1.981097302,13.08518058
32:06.5,1.42E+12,-2.945874,-19.490818,6.2285476,20.67280738,-0.350780552,-10.09461218,-1.65676975,13.06629866
32:06.5,1.42E+12,2.1751268,-14.3909235,2.7976823,14.82082596,-0.470007616,-10.04135891,-1.470227664,12.96288497
32:06.6,1.42E+12,3.7862265,-9.491912,2.20731,10.45486116,-0.55394108,-9.914988705,-1.414019548,12.81754751
32:06.6,1.42E+12,1.6998651,-5.4212766,2.1104612,6.06084382,-0.611098218,-9.666289877,-1.267983228,12.55584533
32:06.6,1.42E+12,-1.3705499,-2.198628,3.251239,4.157274004,-0.683724194,-9.395892167,-1.094613748,12.30341424
32:06.6,1.42E+12,-5.172494,0.50639695,2.064956,5.592421241,-0.741815398,-9.163542348,-0.846217288,12.10813194
32:06.6,1.42E+12,-7.507937,4.189488,0.068407744,8.598000193,-0.84513953,-8.908484728,-0.683966693,12.04048952
32:06.7,1.42E+12,-7.801626,6.542894,1.3582754,10.27228028,-0.963681012,-8.648592176,-0.492523805,12.03370275
32:06.7,1.42E+12,-5.217101,5.508994,-0.7867639,7.627985001,-1.066325562,-8.46086755,-0.359079303,12.01812359
32:06.7,1.42E+12,0.016016694,-0.5312453,-9.3309965,9.346120788,-1.107178608,-8.467393979,-0.532005709,12.1614621
32:06.7,1.42E+12,4.2546024,-11.996952,-17.778679,21.86572491,-1.06872358,-8.692885064,-0.894165593,12.54951064
32:06.7,1.42E+12,1.8556911,-6.114335,-1.8649718,6.656335461,-1.049042506,-8.793329186,-0.914178975,12.64977694
32:06.8,1.42E+12,-2.8274703,-0.122145995,13.618081,13.90904878,-1.130182776,-8.637682846,-0.573083287,12.7538278
32:06.8,1.42E+12,-3.4465828,-11.420201,13.217215,17.80434487,-1.274353972,-8.506229186,-0.32523169,12.7419058
32:06.8,1.42E+12,-9.207503,-18.47114,-3.936963,21.01096861,-1.405409444,-8.488350386,-0.28070229,12.75222674
32:06.8,1.42E+12,0.6756949,-6.7133894,0.690065,6.782503265,-1.325314002,-8.233559214,-0.122987264,12.46774452
32:06.8,1.42E+12,-2.1148024,-5.62635,8.541687,10.44454979,-1.349871937,-7.954811874,-0.111266644,12.25387408
32:06.9,1.42E+12,-2.8779154,-12.793146,13.024864,18.48226349,-1.364466587,-7.846595894,0.030407728,12.23813875
32:06.9,1.42E+12,-1.7639319,-18.246307,4.599785,18.89966129,-1.461458891,-7.972864334,0.05580093,12.36078521
32:06.9,1.42E+12,1.1960129,-19.14384,-5.5179753,19.95908586,-1.479382619,-8.184371514,-0.112736596,12.5742167
32:06.9,1.42E+12,6.5199914,-14.817836,-2.911296,16.44853173,-1.347614636,-8.35737874,-0.229158496,12.7667918
32:06.9,1.42E+12,5.11172,-17.672998,-3.3784745,18.70504289,-1.197683422,-8.63606619,-0.36211501,13.03070474
32:07.0,1.42E+12,3.6262093,-15.880326,-5.807473,17.29337707,-1.010461752,-8.92824359,-0.497122256,13.25758586
32:07.0,1.42E+12,-0.76356214,-12.756772,-12.864248,18.13303989,-0.849435615,-9.216475206,-0.735887728,13.43991614
32:07.1,1.42E+12,-0.9406439,-9.58906,-10.173893,14.01224398,-0.674422553,-9.489285906,-0.962127254,13.50884995
32:07.1,1.42E+12,-0.06301895,-7.2486763,-7.609875,10.50987521,-0.532227246,-9.692832632,-1.050766924,13.55156626
32:07.1,1.42E+12,1.4319223,-3.5010695,-7.390731,8.302457096,-0.459089336,-9.747262445,-0.992490124,13.50619882
32:07.1,1.42E+12,2.2269192,-0.62045974,-1.4756314,2.742558557,-0.412587036,-9.64705782,-0.865581032,13.3682976
32:07.1,1.42E+12,1.579216,-1.0976673,0.05388794,1.923980402,-0.356121458,-9.633205624,-1.061975633,13.20454851
32:07.1,1.42E+12,1.2159215,0.046403505,-1.4775773,1.914119395,-0.333925614,-9.374175294,-1.330849499,12.89084161
32:07.1,1.42E+12,0.676593,-3.5233731,0.9213341,3.704158827,-0.268733182,-9.071181376,-1.273234311,12.58587604
32:07.1,1.42E+12,3.6175272,-15.911612,-2.8139982,16.558517,-0.225024078,-9.178505196,-1.30995894,12.70330563
32:07.2,1.42E+12,2.0826192,-19.082018,-3.1597793,19.45366081,-0.116137506,-9.49871031,-1.482636852,12.94996711
32:07.2,1.42E+12,-5.4245696,-19.513271,-7.087162,21.45743614,-0.139189568,-9.72205185,-1.851152512,13.08485541
32:07.2,1.42E+12,-3.4408946,-19.481688,3.0255084,20.01323622,-0.134333664,-9.82463353,-1.937454044,13.15439306
32:07.2,1.42E+12,-1.9655626,-19.03771,5.882018,20.02238682,-0.159176004,-9.83332443,-1.771218738,13.17933858
32:07.2,1.42E+12,1.6019686,-12.335249,2.9900322,12.79316082,-0.260841592,-9.75001667,-1.549697394,13.04412762
32:07.3,1.42E+12,3.514392,-9.512419,1.5874488,10.26435873,-0.343143432,-9.59263097,-1.38919815,12.84852866
32:07.3,1.42E+12,0.99303496,-6.806945,1.9642154,7.15393324,-0.426253601,-9.39659863,-1.229228808,12.62349645
32:07.3,1.42E+12,-2.325564,-3.5567536,3.479664,5.492431669,-0.460634107,-9.223606362,-0.958696388,12.41692472
32:07.3,1.42E+12,-4.9996033,-0.6860234,2.810855,5.776466662,-0.561287797,-9.04127351,-0.721427788,12.26558894
32:07.4,1.42E+12,-7.043603,2.3430777,-0.29368928,7.428903669,-0.740447239,-8.844202316,-0.539582934,12.17071856
32:07.4,1.42E+12,-7.9683795,4.5348196,0.71760774,9.196446136,-0.973952659,-8.660543244,-0.397351699,12.18002922
32:07.4,1.42E+12,-6.476881,3.5741177,-0.8140073,7.44223842,-1.129102019,-8.53064337,-0.423813671,12.26428113
32:07.4,1.42E+12,-2.1035757,-1.1258088,-8.960068,9.272286382,-1.154597005,-8.496020368,-0.631168487,12.38390677
32:07.4,1.42E+12,3.6178267,-13.198354,-17.872982,22.51063535,-1.067777547,-8.699255742,-0.996801131,12.77115668
32:07.4,1.42E+12,2.7616072,-9.291328,0.02469864,9.693083119,-0.998576451,-8.576915122,-0.935210208,12.65054262
32:07.5,1.42E+12,-1.4467415,-2.0046313,15.500417,15.69632233,-0.936922661,-8.236735548,-0.518608528,12.55928345
32:07.5,1.42E+12,-5.8766294,-13.538896,9.485774,17.54469682,-0.961211155,-8.123753508,-0.184015318,12.48951633
32:07.5,1.42E+12,-8.689131,-18.75929,3.624862,20.9893207,-1.110908859,-8.109533068,-0.149206706,12.51733624
32:07.5,1.42E+12,-2.1612058,-7.239096,4.135151,8.612479039,-1.095215495,-7.864498628,-0.191074638,12.27612968
32:07.5,1.42E+12,-2.941982,-8.954379,8.740174,12.85405784,-1.197557671,-7.755767738,-0.072224804,12.23679432
32:07.6,1.42E+12,-2.2635927,-14.700331,9.210048,17.49424384,-1.318554055,-7.859936118,0.067829956,12.37758197
32:07.6,1.42E+12,-0.8605605,-18.917212,1.3334271,18.98366408,-1.369762567,-8.129854826,0.052289274,12.63603837
32:07.6,1.42E+12,5.028194,-17.255667,-5.8050785,18.8875545,-1.241787689,-8.430995606,-0.128837076,12.93064398
32:07.6,1.42E+12,5.9607544,-17.61028,-6.629414,19.73833034,-1.019122721,-8.793329145,-0.302724476,13.21356217
32:07.6,1.42E+12,5.638475,-17.173338,-5.028194,18.76162768,-0.756194481,-9.220585665,-0.404656511,13.41683472
32:07.7,1.42E+12,3.829337,-13.3022375,-9.023087,16.52360261,-0.523575221,-9.617488295,-0.612283759,13.54186116
32:07.7,1.42E+12,1.4135106,-10.681189,-9.662557,14.47241578,-0.390962989,-9.941291955,-0.789799621,13.67874978
32:07.7,1.42E+12,0.79035646,-8.172405,-7.0207005,10.80292101,-0.375476193,-10.09411515,-0.743593701,13.70788578
32:07.7,1.42E+12,1.4377601,-4.999753,-8.129595,9.651683741,-0.431813039,-9.954171169,-0.550612021,13.46360496
32:07.7,1.42E+12,2.2734723,-1.8522482,-4.8051577,5.62930193,-0.423457415,-9.868929433,-0.609415739,13.44306429
32:07.8,1.42E+12,0.7276369,-1.3552817,1.281036,2.001823463,-0.352355271,-9.893592147,-0.856156639,13.20491978
32:07.8,1.42E+12,-0.33650026,-0.29803026,-0.14280304,0.471643053,-0.290153621,-9.671148732,-1.123357,12.85826575
32:07.8,1.42E+12,-1.3124707,-1.2424164,0.16301101,1.814593739,-0.132252975,-9.32657426,-1.04135752,12.47433825
32:07.8,1.42E+12,0.74036044,-12.796739,-3.8276904,13.37743908,-0.130959664,-9.448241252,-1.131712628,12.60623696
32:07.9,1.42E+12,4.0145016,-18.65825,-2.0676503,19.19691887,-0.008373584,-9.708879252,-1.343899374,12.78128435
32:07.9,1.42E+12,-4.243376,-18.928886,-5.588179,20.18753847,-0.035682796,-9.831594052,-1.716160234,12.81538985
32:07.9,1.42E+12,-4.546645,-18.944454,-3.6630328,19.82377682,-0.091337058,-9.845556992,-1.88141659,12.83387216
32:07.9,1.42E+12,-3.1461575,-19.49456,4.045038,20.1568477,-0.178180466,-9.852571392,-1.690156324,12.83782739
32:07.9,1.42E+12,0.32437545,-16.900156,7.0561767,18.31693538,-0.302092785,-9.894217792,-1.49080687,12.87519547
32:07.9,1.42E+12,4.2978625,-11.137889,1.0401869,11.98357969,-0.318369935,-9.763515612,-1.402433642,12.7407662
32:08.0,1.42E+12,2.0678,-7.6511893,2.3465204,8.265751783,-0.349538121,-9.598932878,-1.239353774,12.5602137
32:08.0,1.42E+12,-0.780477,-4.2993593,3.0292506,5.316953445,-0.349876418,-9.429784624,-0.921483802,12.30389197
32:08.0,1.42E+12,-4.5090733,-0.72643936,3.8522391,5.97488094,-0.421245006,-9.252532211,-0.64096116,12.14314471
32:08.0,1.42E+12,-7.028634,2.4704626,2.0776794,7.734444586,-0.560557307,-9.058149433,-0.447210072,12.08763609
32:08.1,1.42E+12,-7.63143,4.9455657,2.0315752,9.317974122,-0.741824353,-8.889216729,-0.258763948,12.10794643
32:08.1,1.42E+12,-6.4026356,4.526587,0.17827927,7.843182772,-0.914415449,-8.786275794,-0.225685734,12.20995892
32:08.1,1.42E+12,-2.5505462,1.2731025,-9.599089,10.01342027,-0.997010693,-8.738860398,-0.418745273,12.37174772
32:08.1,1.42E+12,1.6561561,-9.82437,-18.187927,20.73793113,-0.988206001,-8.936275868,-0.752952267,12.74822395
32:08.1,1.42E+12,3.5660343,-12.831916,-7.9534106,15.51229864,-0.930417175,-9.122446726,-0.930447161,12.98438675
