time,time_milisec,ax,ay,az,resultant,MA_x,MA_y,MA_z,MA_R
12:17.0,1.42E+12,0.39877075,-2.1957839,-9.32396,9.58732054,0,0,0,0
12:17.0,1.42E+12,0.45071274,-2.2056632,-9.350156,9.617354592,0,0,0,0
12:17.0,1.42E+12,0.2996768,-2.1278253,-9.364975,9.608340306,0,0,0,0
12:17.0,1.42E+12,0.2773732,-2.1395009,-9.327105,9.573363446,0,0,0,0
12:17.0,1.42E+12,0.28605515,-2.1845572,-9.242829,9.501789602,0,0,0,0
12:17.1,1.42E+12,0.29054582,-2.1369562,-9.2890835,9.536145497,0,0,0,0
12:17.1,1.42E+12,0.2811154,-2.1338127,-9.220077,9.467946049,0,0,0,0
12:17.1,1.42E+12,0.37242553,-2.0576212,-9.291179,9.523576691,0,0,0,0
12:17.1,1.42E+12,0.37018022,-2.1261785,-9.262738,9.510835067,0,0,0,0
12:17.1,1.42E+12,0.4631369,-2.0832179,-9.284443,9.526551025,0,0,0,0
12:17.2,1.42E+12,0.54786074,-2.0857627,-9.308244,9.55478748,0,0,0,0
12:17.2,1.42E+12,0.57225996,-2.0294797,-9.352402,9.587162901,0,0,0,0
12:17.2,1.42E+12,0.5122348,-2.1127067,-9.443861,9.69084231,0,0,0,0
12:17.2,1.42E+12,0.7041357,-2.0754342,-9.442365,9.693373561,0,0,0,0
12:17.2,1.42E+12,0.68916684,-2.1770728,-9.342522,9.617552403,0,0,0,0
12:17.3,1.42E+12,0.7164102,-2.1258793,-9.360485,9.625553792,0,0,0,0
12:17.3,1.42E+12,0.7164102,-2.2441332,-9.402397,9.6930102,0,0,0,0
12:17.3,1.42E+12,0.67704207,-2.1936882,-9.342073,9.62003024,0,0,0,0
12:17.3,1.42E+12,0.7089258,-2.1071682,-9.265732,9.528720959,0,0,0,0
12:17.3,1.42E+12,0.80248123,-2.1146526,-9.386531,9.655190105,0,0,0,0
12:17.4,1.42E+12,0.8002359,-2.052382,-9.414073,9.668372139,0,0,0,0
12:17.4,1.42E+12,0.79769117,-2.1796174,-9.229058,9.516436034,0,0,0,0
12:17.4,1.42E+12,0.8346643,-2.158212,-9.305249,9.588649669,0,0,0,0
12:17.4,1.42E+12,0.7538324,-2.0865111,-9.272018,9.533735346,0,0,0,0
12:17.4,1.42E+12,0.6834787,-2.1754262,-9.321116,9.595979667,0,0,0,0
12:17.5,1.42E+12,0.5980064,-2.0978875,-9.3856325,9.635810347,0,0,0,0
12:17.5,1.42E+12,0.7104227,-2.1157005,-9.326805,9.590108473,0,0,0,0
12:17.6,1.42E+12,0.7301816,-2.0667522,-9.275311,9.53079346,0,0,0,0
12:17.6,1.42E+12,0.67584455,-2.1215382,-9.310339,9.572883708,0,0,0,0
12:17.6,1.42E+12,0.574655,-2.0664527,-9.358988,9.601620255,0,0,0,0
12:17.6,1.42E+12,0.5559439,-2.0944445,-9.3679695,9.615332752,0,0,0,0
12:17.6,1.42E+12,0.56432647,-2.1576133,-9.3083935,9.57183102,0,0,0,0
12:17.6,1.42E+12,0.4936734,-2.1526735,-9.214838,9.475808989,0,0,0,0
12:17.6,1.42E+12,0.38844222,-2.0624113,-9.281599,9.51590814,0,0,0,0
12:17.6,1.42E+12,0.47675857,-2.1369562,-9.2537565,9.509252857,0,0,0,0
12:17.7,1.42E+12,0.5641768,-2.192341,-9.333541,9.604147131,0,0,0,0
12:17.7,1.42E+12,0.46643007,-2.1436923,-9.329799,9.584264347,0,0,0,0
12:17.7,1.42E+12,0.50864226,-2.2508693,-9.205856,9.490675121,0,0,0,0
12:17.7,1.42E+12,0.54696256,-2.2499712,-9.289982,9.574199915,0,0,0,0
12:17.7,1.42E+12,0.59890455,-2.2385948,-9.328152,9.611681074,0,0,0,0
12:17.8,1.42E+12,0.47421387,-2.11585,-9.331744,9.580352086,0,0,0,0
12:17.8,1.42E+12,0.40386018,-2.082769,-9.336235,9.574252646,0,0,0,0
12:17.8,1.42E+12,0.49427214,-2.1318667,-9.296119,9.550235025,0,0,0,0
12:17.9,1.42E+12,0.53049684,-2.1556673,-9.258846,9.5212687,0,0,0,0
12:17.9,1.42E+12,0.60040146,-2.2646406,-9.235944,9.52847,0,0,0,0
12:17.9,1.42E+12,0.531844,-2.1481829,-9.367371,9.625236998,0,0,0,0
12:17.9,1.42E+12,0.54606444,-2.1897962,-9.288784,9.559022019,0,0,0,0
12:17.9,1.42E+12,0.619861,-2.109563,-9.234746,9.492892994,0,0,0,0
12:17.9,1.42E+12,0.6394702,-2.0526814,-9.278904,9.524730049,0,0,0,0
12:17.9,1.42E+12,0.6399193,-2.0832179,-9.304651,9.55645456,0.55881194,-2.135827536,-9.31297955,9.572397046
12:18.0,1.42E+12,0.6306386,-2.237547,-9.278605,9.565397659,0.563449297,-2.136662798,-9.31207245,9.571958588
12:18.0,1.42E+12,0.685724,-2.0930974,-9.24268,9.501495025,0.568149522,-2.134411482,-9.30992293,9.569641397
12:18.0,1.42E+12,0.5987549,-2.2282662,-9.220975,9.505264733,0.574131084,-2.1364203,-9.30704293,9.567579885
12:18.0,1.42E+12,0.667462,-2.1992266,-9.401799,9.678632527,0.58193286,-2.137614814,-9.30853681,9.569685267
12:18.0,1.42E+12,0.64919996,-2.127376,-9.270223,9.533321756,0.589195756,-2.13647119,-9.30908469,9.57031591
12:18.1,1.42E+12,0.67359924,-2.113904,-9.351204,9.610793011,0.596856825,-2.136010146,-9.3103271,9.57180886
12:18.1,1.42E+12,0.54322034,-2.0948937,-9.414672,9.660213084,0.602098924,-2.135231766,-9.314219,9.575654201
12:18.1,1.42E+12,0.6442602,-2.1402493,-9.258697,9.524663165,0.607535617,-2.136884328,-9.31356936,9.57567593
12:18.2,1.42E+12,0.61252624,-2.1574636,-9.387728,9.651905231,0.612382537,-2.13751003,-9.31606916,9.578497334
12:18.2,1.42E+12,0.57794815,-2.1528232,-9.270073,9.534302556,0.614678762,-2.138902136,-9.31578176,9.578652364
12:18.2,1.42E+12,0.5680687,-2.069746,-9.270073,9.515293163,0.615082922,-2.138581802,-9.31501834,9.577862478
12:18.2,1.42E+12,0.7402107,-2.1534219,-9.398506,9.670421542,0.618441936,-2.141060646,-9.31594042,9.579527651
12:18.2,1.42E+12,0.5255571,-2.0887563,-9.245673,9.493238771,0.618708382,-2.140581638,-9.31197666,9.57557558
12:18.2,1.42E+12,0.4674779,-2.1803658,-9.419013,9.679376865,0.613975226,-2.14268027,-9.31150962,9.575295646
12:18.2,1.42E+12,0.47765672,-2.0826192,-9.395362,9.635262622,0.609745024,-2.140791198,-9.31256642,9.575649851
12:18.3,1.42E+12,0.506846,-2.1960833,-9.362281,9.629744558,0.60555374,-2.142195278,-9.31260234,9.575733666
12:18.3,1.42E+12,0.62450135,-2.2357507,-9.391769,9.674394455,0.603715563,-2.142027628,-9.31238978,9.575361351
12:18.3,1.42E+12,0.5933661,-2.1251307,-9.323811,9.581321171,0.602042044,-2.140656478,-9.31202454,9.57458717
12:18.3,1.42E+12,0.63018954,-2.1426444,-9.180559,9.448318762,0.600467318,-2.141366002,-9.31032108,9.572979126
12:18.3,1.42E+12,0.51941985,-2.2544618,-9.358389,9.640116164,0.594806091,-2.144162186,-9.30975824,9.572677647
12:18.4,1.42E+12,0.58438474,-2.1859045,-9.318123,9.58890506,0.590489068,-2.146832636,-9.30783924,9.571088305
12:18.4,1.42E+12,0.6117778,-2.0666025,-9.363778,9.608613657,0.5867708,-2.144572338,-9.31053364,9.572931858
12:18.4,1.42E+12,0.5828879,-2.09669,-9.298064,9.549338271,0.581735272,-2.143341898,-9.31038994,9.57214563
12:18.4,1.42E+12,0.56687117,-2.1547692,-9.315429,9.578183057,0.577996048,-2.14470706,-9.31125816,9.573034584
12:18.4,1.42E+12,0.5800438,-2.0419037,-9.279353,9.519044786,0.57592735,-2.14203661,-9.3104229,9.571495886
12:18.5,1.42E+12,0.49981064,-2.1679418,-9.392967,9.65285509,0.573963434,-2.143437696,-9.31056959,9.571836781
12:18.5,1.42E+12,0.62959075,-2.0655546,-9.263187,9.511547388,0.572346795,-2.142434778,-9.30929723,9.57026556
12:18.5,1.42E+12,0.5578899,-2.252965,-9.28624,9.571903978,0.568900961,-2.146159034,-9.30951581,9.57108777
12:18.5,1.42E+12,0.49546966,-2.3126907,-9.28624,9.582707436,0.565293464,-2.149982084,-9.30903383,9.571284244
12:18.5,1.42E+12,0.5842351,-2.3465204,-9.431288,9.736358764,0.565485066,-2.155583438,-9.31047983,9.573979015
12:18.6,1.42E+12,0.5730084,-2.2658381,-9.396709,9.683000617,0.565826356,-2.15901131,-9.31105462,9.575332372
12:18.6,1.42E+12,0.67868865,-2.1294718,-9.246122,9.51241507,0.568113599,-2.15844848,-9.30980919,9.574144053
12:18.6,1.42E+12,0.63527894,-2.0618124,-9.31947,9.56593805,0.57094571,-2.156631258,-9.31190183,9.575946634
12:18.6,1.42E+12,0.6774911,-2.1110601,-9.421258,9.678619284,0.576726688,-2.157604234,-9.31469501,9.579200857
12:18.6,1.42E+12,0.7240443,-2.1809647,-9.368717,9.646434854,0.581672402,-2.158484404,-9.31699422,9.581944497
12:18.7,1.42E+12,0.60773623,-2.0450473,-9.363329,9.603306292,0.582543591,-2.15553853,-9.31758998,9.58192768
12:18.7,1.42E+12,0.5783972,-2.1094134,-9.261091,9.515880134,0.584782933,-2.154852952,-9.31621582,9.580559996
12:18.7,1.42E+12,0.6456075,-2.2002745,-9.282348,9.561380722,0.587522238,-2.153841056,-9.31774566,9.581974108
12:18.7,1.42E+12,0.59261763,-2.1785696,-9.334439,9.60359894,0.58843534,-2.152413024,-9.3186348,9.582562088
12:18.7,1.42E+12,0.59501266,-2.0282822,-9.408834,9.643346203,0.588357502,-2.148206772,-9.32024844,9.583195391
12:18.8,1.42E+12,0.5548961,-2.1246817,-9.3012085,9.556916949,0.589971146,-2.148383406,-9.31963773,9.582726688
12:18.8,1.42E+12,0.4697232,-2.3002665,-9.316476,9.607735993,0.591288407,-2.152733356,-9.31924255,9.583396355
12:18.8,1.42E+12,0.49142808,-2.068249,-9.364227,9.602494613,0.591231526,-2.151461002,-9.32060471,9.584441547
12:18.8,1.42E+12,0.4843927,-2.0835173,-9.282946,9.526214729,0.590309443,-2.150018002,-9.32108671,9.584540468
12:18.8,1.42E+12,0.37062928,-2.176923,-9.334439,9.592085866,0.585713999,-2.14826365,-9.32305661,9.585812785
12:18.9,1.42E+12,0.51043856,-2.069746,-9.368717,9.608186835,0.58528589,-2.146694912,-9.32308353,9.585471782
12:18.9,1.42E+12,0.51822233,-2.0556753,-9.378747,9.61536534,0.584729048,-2.144012494,-9.32488279,9.586598648
12:18.9,1.42E+12,0.45295808,-2.0525317,-9.30974,9.544072311,0.58139099,-2.142871868,-9.32638267,9.587622234
12:18.9,1.42E+12,0.49082932,-2.1113594,-9.432186,9.678062031,0.578418172,-2.144045428,-9.32944831,9.590688874
12:18.9,1.42E+12,0.5616321,-2.1790187,-9.291328,9.559933531,0.576852428,-2.145961444,-9.32918185,9.590758453
12:19.0,1.42E+12,0.60519147,-2.1131556,-9.234147,9.492162774,0.576343486,-2.143473616,-9.32829269,9.589293756
12:19.0,1.42E+12,0.55414766,-2.0902534,-9.154663,9.406598405,0.573711959,-2.143416736,-9.32653235,9.587395823
12:19.0,1.42E+12,0.6316864,-2.2589524,-9.242081,9.535090711,0.574370589,-2.14403046,-9.32695447,9.587992343
12:19.0,1.42E+12,0.55010605,-2.119293,-9.245523,9.501248077,0.57202347,-2.142431788,-9.32382895,9.584444654
12:19.0,1.42E+12,0.57914567,-2.0667522,-9.382938,9.625299989,0.570622384,-2.141219312,-9.32608325,9.586284219
12:19.1,1.42E+12,0.60998154,-2.0592678,-9.407337,9.649386031,0.56935003,-2.140126588,-9.32720591,9.587056079
12:19.1,1.42E+12,0.68677187,-2.0767813,-9.344169,9.596779172,0.572221061,-2.13976434,-9.32579585,9.585787401
12:19.1,1.42E+12,0.60354495,-2.143243,-9.394315,9.654579814,0.571406756,-2.139824214,-9.32850821,9.588385734
12:19.1,1.42E+12,0.63632673,-2.194287,-9.2537565,9.531621924,0.571882765,-2.140560682,-9.32582878,9.585980068
12:19.1,1.42E+12,0.5990543,-2.1868026,-9.267229,9.540571524,0.572304888,-2.14124027,-9.3257719,9.586105447
12:19.2,1.42E+12,0.54726195,-2.1541703,-9.265133,9.527992172,0.571888753,-2.142928756,-9.3256731,9.586359427
12:19.2,1.42E+12,0.6012996,-2.1739292,-9.389075,9.656203122,0.569110531,-2.143338902,-9.32548448,9.586075059
12:19.2,1.42E+12,0.705932,-2.1634512,-9.352701,9.625584506,0.572718029,-2.1448328,-9.32762504,9.588721973
12:19.2,1.42E+12,0.542921,-2.1833596,-9.386381,9.652252102,0.574226891,-2.144892676,-9.3269724,9.588179478
12:19.2,1.42E+12,0.6126759,-2.1818628,-9.379645,9.649540785,0.576927275,-2.146877548,-9.32665806,9.588465041
12:19.3,1.42E+12,0.5736072,-2.0309765,-9.270971,9.508143565,0.578262499,-2.143575412,-9.32483186,9.586033022
12:19.3,1.42E+12,0.5980064,-2.1450393,-9.355994,9.617350414,0.5777326,-2.141761184,-9.32411636,9.584892141
12:19.3,1.42E+12,0.68243086,-2.1068687,-9.437574,9.693936796,0.579513895,-2.141395944,-9.32639162,9.587144453
12:19.3,1.42E+12,0.5604346,-2.1318667,-9.323063,9.580106798,0.578118796,-2.14118039,-9.3292417,9.589780214
12:19.3,1.42E+12,0.5204677,-2.2317092,-9.264085,9.543305689,0.578139753,-2.140725338,-9.32735562,9.587844004
12:19.4,1.42E+12,0.5641768,-2.086062,-9.361233,9.607425951,0.577735595,-2.138728488,-9.32821782,9.588214422
12:19.4,1.42E+12,0.63617706,-2.1980293,-9.399254,9.673780534,0.57822358,-2.141357024,-9.32892734,9.58951776
12:19.4,1.42E+12,0.46687913,-2.192341,-9.366023,9.630509956,0.575903404,-2.143270044,-9.33028652,9.591141193
12:19.4,1.42E+12,0.65878004,-2.2016218,-9.313333,9.592669142,0.577741582,-2.144207096,-9.3302446,9.591430915
12:19.5,1.42E+12,0.58977354,-2.2097049,-9.344169,9.619985596,0.577936177,-2.14756312,-9.33154092,9.593449731
12:19.5,1.42E+12,0.6210585,-2.2475762,-9.297466,9.585415299,0.580361134,-2.149155808,-9.3296309,9.592100936
12:19.5,1.42E+12,0.51807266,-2.1097128,-9.388926,9.636971454,0.578130772,-2.150038972,-9.33214568,9.594609417
12:19.5,1.42E+12,0.4538562,-2.2974224,-9.267229,9.558539034,0.576050098,-2.15092812,-9.33176546,9.594342118
12:19.5,1.42E+12,0.5269043,-2.1911435,-9.346264,9.614124439,0.576678791,-2.148497176,-9.33296594,9.594970458
12:19.5,1.42E+12,0.5110373,-2.2421873,-9.270971,9.551935212,0.575214835,-2.146410514,-9.3297596,9.591281987
12:19.6,1.42E+12,0.5571414,-2.1718338,-9.294472,9.561091902,0.574897495,-2.144530428,-9.32771486,9.588843813
12:19.6,1.42E+12,0.48349458,-2.2314098,-9.367071,9.641316084,0.570993613,-2.146569188,-9.33013384,9.591421833
12:19.6,1.42E+12,0.5701643,-2.329905,-9.347611,9.650459888,0.569691321,-2.15193104,-9.33069666,9.59311227
12:19.6,1.42E+12,0.6264473,-2.0664527,-9.397159,9.642056848,0.568670445,-2.151038892,-9.33021468,9.592381021
12:19.6,1.42E+12,0.5548961,-2.1752765,-9.379346,9.644266116,0.565287481,-2.150925128,-9.33042726,9.592337646
12:19.7,1.42E+12,0.5402266,-2.3113434,-9.362131,9.658346129,0.563937288,-2.15625105,-9.3304033,9.593438443
12:19.7,1.42E+12,0.54157376,-2.1306694,-9.367371,9.621886181,0.563200819,-2.15667617,-9.3325289,9.595558564
12:19.7,1.42E+12,0.5590874,-2.070195,-9.288634,9.532943283,0.561470417,-2.15407458,-9.33265462,9.594989815
12:19.7,1.42E+12,0.5098398,-2.0820205,-9.340726,9.583522744,0.559814861,-2.152143598,-9.33278036,9.594588291
12:19.8,1.42E+12,0.5533992,-2.2191353,-9.352102,9.627700866,0.558982591,-2.15596066,-9.33164572,9.594275385
12:19.8,1.42E+12,0.5536986,-2.2311103,-9.408385,9.685150676,0.558958641,-2.158089232,-9.33378925,9.596840059
12:19.8,1.42E+12,0.54890853,-2.3526576,-9.229358,9.540301224,0.560542348,-2.159137054,-9.33204689,9.595491364
12:19.8,1.42E+12,0.5686675,-2.0996838,-9.271271,9.523052071,0.562087136,-2.15976575,-9.33018777,9.593902513
12:19.8,1.42E+12,0.5771997,-2.2353017,-9.314081,9.595928202,0.563943276,-2.162801438,-9.33081047,9.595296782
12:19.8,1.42E+12,0.712668,-2.1745281,-9.389524,9.664348353,0.570784051,-2.16275354,-9.33191217,9.596742032
12:19.9,1.42E+12,0.7161108,-2.085613,-9.432784,9.68710536,0.574897496,-2.16307088,-9.33319351,9.598320403
12:19.9,1.42E+12,0.581391,-2.227967,-9.309291,9.589825409,0.576160869,-2.166516714,-9.33180439,9.597809604
12:19.9,1.42E+12,0.49202684,-2.26015,-9.289533,9.573180861,0.576942244,-2.17066908,-9.33140025,9.598391775
12:19.9,1.42E+12,0.5510042,-2.201472,-9.323063,9.595289902,0.578145742,-2.172471332,-9.32921779,9.596736332
12:19.9,1.42E+12,0.619861,-2.1609063,-9.320667,9.587939144,0.57931032,-2.172109084,-9.32980457,9.597296445
12:20.0,1.42E+12,0.6595285,-2.2269192,-9.404194,9.686744126,0.58039706,-2.174384356,-9.33320551,9.601188072
12:20.0,1.42E+12,0.61252624,-2.1912932,-9.309141,9.583165471,0.581564632,-2.176405152,-9.33629507,9.604719413
12:20.0,1.42E+12,0.43828857,-2.3233187,-9.270223,9.566971366,0.577696675,-2.177692478,-9.33685791,9.605357026
12:20.0,1.42E+12,0.5860313,-2.1414468,-9.282198,9.544025712,0.57841518,-2.178135554,-9.33759141,9.606212579
12:20.0,1.42E+12,0.67449737,-2.109563,-9.297466,9.557618782,0.580322214,-2.17899177,-9.33588197,9.604858955
12:20.1,1.42E+12,0.6743477,-2.203418,-9.27621,9.558130971,0.581609538,-2.181874774,-9.33325943,9.603033853
12:20.1,1.42E+12,0.6402187,-2.181713,-9.318422,9.591805887,0.580678474,-2.183973408,-9.33274449,9.602934388
12:20.1,1.42E+12,0.5803432,-2.176025,-9.425599,9.690913246,0.580214439,-2.184629048,-9.33337017,9.603661056
12:20.1,1.42E+12,0.515977,-2.2611978,-9.275311,9.560891271,0.577807445,-2.185967264,-9.33380126,9.604246443
12:20.1,1.42E+12,0.48379394,-2.1137545,-9.305848,9.555146344,0.575502237,-2.184506302,-9.33457364,9.60453794
12:20.2,1.42E+12,0.6316864,-2.1213884,-9.479937,9.73491253,0.577190726,-2.183850664,-9.33886972,9.608676347
12:20.2,1.42E+12,0.59890455,-2.1481829,-9.398954,9.659902315,0.577142825,-2.183335738,-9.3390673,9.608750331
12:20.2,1.42E+12,0.65099627,-2.1165986,-9.329799,9.589000738,0.576044111,-2.182398686,-9.33860926,9.608018655
12:20.2,1.42E+12,0.5363347,-2.2733226,-9.453142,9.737430063,0.575912385,-2.184197946,-9.33994448,9.609722215
12:20.2,1.42E+12,0.6274951,-2.1971312,-9.276958,9.554218196,0.576208769,-2.184503314,-9.33789074,9.607815763
12:20.3,1.42E+12,0.58483386,-2.2290146,-9.267529,9.549745049,0.576433302,-2.188464076,-9.3378219,9.608647792
12:20.3,1.42E+12,0.5993536,-2.1748273,-9.255104,9.526072043,0.576460246,-2.189059836,-9.3358041,9.606822225
12:20.3,1.42E+12,0.44233018,-2.2122495,-9.297167,9.566975387,0.571658232,-2.191167452,-9.33299596,9.604282997
12:20.3,1.42E+12,0.5965096,-2.1408482,-9.285341,9.547597195,0.572379732,-2.191347082,-9.33224152,9.603632805
12:20.3,1.42E+12,0.5854326,-2.0598664,-9.302256,9.54556167,0.57367903,-2.187910226,-9.33300494,9.603677924
12:20.4,1.42E+12,0.6601273,-2.151027,-9.259295,9.528758004,0.57559804,-2.189209526,-9.33096618,9.602104566
12:20.4,1.42E+12,0.58273816,-2.15911,-9.418264,9.680136183,0.574529262,-2.18843114,-9.33134638,9.602231678
12:20.4,1.42E+12,0.52121615,-2.169738,-9.396859,9.658177278,0.575616003,-2.18797908,-9.3319631,9.602785025
12:20.5,1.42E+12,0.597258,-1.9245479,-9.226364,9.443854848,0.574385562,-2.182437602,-9.33022372,9.599808739
12:20.5,1.42E+12,0.59635985,-2.0636086,-9.261091,9.506941255,0.574517288,-2.179515676,-9.32856216,9.597547852
12:20.5,1.42E+12,0.506846,-2.2064118,-9.377998,9.64738267,0.572233038,-2.178692388,-9.3301728,9.5987872
12:20.5,1.42E+12,0.64126647,-2.0597167,-9.384584,9.629333955,0.574696914,-2.177692466,-9.33008596,9.59863445
12:20.5,1.42E+12,0.5866301,-2.065854,-9.233399,9.479849404,0.577352392,-2.173061098,-9.32940936,9.597060657
12:20.5,1.42E+12,0.5650749,-2.1444407,-9.297317,9.558139932,0.578115804,-2.172127042,-9.32843042,9.595940967
12:20.5,1.42E+12,0.5680687,-2.1785696,-9.372459,9.639079586,0.579256432,-2.170854688,-9.33046018,9.597683854
12:20.6,1.42E+12,0.57390654,-2.1978796,-9.280102,9.554074345,0.579591735,-2.171375604,-9.33017278,9.597543503
12:20.6,1.42E+12,0.6453081,-2.0926483,-9.234746,9.490844701,0.582828006,-2.168600374,-9.32752628,9.594534076
12:20.6,1.42E+12,0.6527925,-2.292782,-9.231453,9.534291365,0.58448057,-2.167857914,-9.32520312,9.592210705
12:20.6,1.42E+12,0.6078859,-2.1441412,-9.414672,9.674859979,0.584109342,-2.169411684,-9.32555338,9.592866768
12:20.6,1.42E+12,0.6575825,-2.1050725,-9.34342,9.600168867,0.58616307,-2.168007604,-9.32483486,9.591984823
12:20.7,1.42E+12,0.5867798,-2.1439915,-9.35315,9.613658253,0.587094134,-2.164660566,-9.32465524,9.591091065
12:20.7,1.42E+12,0.5936655,-2.160607,-9.277707,9.544449094,0.588135968,-2.165259318,-9.32286196,9.589542324
12:20.7,1.42E+12,0.6860234,-1.9990928,-9.363479,9.599048865,0.590674688,-2.163837274,-9.32435886,9.590864435
12:20.7,1.42E+12,0.6592291,-2.224075,-9.316177,9.600637818,0.593662474,-2.166678364,-9.32386788,9.591206737
12:20.8,1.42E+12,0.60983187,-2.1871018,-9.286388,9.559932598,0.594791128,-2.166037694,-9.3225536,9.589851371
12:20.8,1.42E+12,0.633782,-2.1396506,-9.304651,9.568506391,0.596392796,-2.1642085,-9.32047892,9.587518486
12:20.8,1.42E+12,0.59097105,-2.140998,-9.370963,9.630579773,0.597234046,-2.159975308,-9.32331102,9.589324057
12:20.8,1.42E+12,0.63812304,-2.090403,-9.277557,9.531529237,0.598623157,-2.159789692,-9.32343674,9.5894936
12:20.8,1.42E+12,0.6038443,-2.0791764,-9.39641,9.642620149,0.599156049,-2.156667186,-9.32508332,9.590427439
12:20.8,1.42E+12,0.62569886,-2.097588,-9.425,9.675846189,0.597416666,-2.155128384,-9.32579284,9.590657396
12:20.9,1.42E+12,0.6354286,-2.0851638,-9.391769,9.641421188,0.595803022,-2.1551194,-9.32497254,9.589743712
12:20.9,1.42E+12,0.64575714,-2.186054,-9.380842,9.653809145,0.597090345,-2.15428114,-9.32640356,9.591023387
12:20.9,1.42E+12,0.6527925,-2.160158,-9.411678,9.678434967,0.600305658,-2.1522813,-9.32884646,9.593128469
12:20.9,1.42E+12,0.65638506,-2.262994,-9.368568,9.660333822,0.602413275,-2.15351174,-9.32975656,9.594429347
12:20.9,1.42E+12,0.6095325,-2.1761746,-9.24717,9.519318188,0.602206705,-2.153817106,-9.32828662,9.593056928
12:21.0,1.42E+12,0.5954617,-2.1691391,-9.374855,9.640935916,0.600925369,-2.152661504,-9.32769984,9.592140764
12:21.0,1.42E+12,0.70623136,-2.2653892,-9.176667,9.478500313,0.602799472,-2.154143424,-9.32505036,9.590047461
12:21.0,1.42E+12,0.5840854,-2.1146526,-9.342373,9.596501688,0.605715408,-2.149970102,-9.32649336,9.590638067
12:21.0,1.42E+12,0.49292496,-2.100881,-9.3944645,9.639120252,0.603853282,-2.149158786,-9.32873869,9.592539958
12:21.0,1.42E+12,0.7113208,-2.0401075,-9.251362,9.500300771,0.60458975,-2.147769676,-9.32781661,9.591393598
12:21.1,1.42E+12,0.6288423,-2.1392014,-9.34327,9.605639987,0.603679642,-2.146485344,-9.32915781,9.592343778
12:21.1,1.42E+12,0.51208514,-2.1706362,-9.263038,9.527736651,0.601116971,-2.146263808,-9.32805013,9.591062393
12:21.1,1.42E+12,0.7274872,-2.2324576,-9.295071,9.587045919,0.604059851,-2.14739246,-9.32543957,9.588985047
12:21.1,1.42E+12,0.72898406,-2.1709356,-9.2890835,9.567207085,0.608319992,-2.145587216,-9.32571502,9.589111363
12:21.1,1.42E+12,0.74230635,-2.0905526,-9.267229,9.529058832,0.61349024,-2.145123178,-9.32494264,9.588589613
12:21.2,1.42E+12,0.63018954,-2.166894,-9.334589,9.603495211,0.613460303,-2.14603329,-9.32203568,9.585961267
12:21.2,1.42E+12,0.78496766,-2.184108,-9.224567,9.512052266,0.617181565,-2.146751792,-9.31854794,9.583004266
12:21.2,1.42E+12,0.6677614,-2.2420378,-9.281,9.571290393,0.617516868,-2.149260576,-9.31757196,9.582650059
12:21.2,1.42E+12,0.7095245,-2.2227278,-9.155112,9.447752094,0.620980664,-2.14824868,-9.31161136,9.576856499
12:21.2,1.42E+12,0.58707917,-2.2480252,-9.273366,9.559999802,0.620172345,-2.14926656,-9.31153952,9.576972131
12:21.3,1.42E+12,0.76101744,-2.2495222,-9.3541975,9.65093304,0.623696017,-2.149676712,-9.31327289,9.578995891
12:21.3,1.42E+12,0.7234456,-2.0660038,-9.490115,9.739303258,0.626177857,-2.147500242,-9.31797311,9.583260516
12:21.3,1.42E+12,0.67644334,-1.9835253,-9.502689,9.731035219,0.63086012,-2.142925758,-9.32208355,9.586541712
12:21.3,1.42E+12,0.7595206,-2.0085232,-9.34821,9.591666549,0.63412034,-2.140279258,-9.32334093,9.587423099
12:21.4,1.42E+12,0.64381117,-1.9335293,-9.312883,9.533248038,0.635287912,-2.137752516,-9.32355347,9.587176827
12:21.4,1.42E+12,0.8018825,-1.9981947,-9.253457,9.500645455,0.638123016,-2.13469587,-9.32343671,9.586614576
12:21.4,1.42E+12,0.7336244,-2.0622616,-9.30046,9.554563511,0.64114074,-2.132758902,-9.32108063,9.584103122
12:21.4,1.42E+12,0.7141649,-2.0007393,-9.3437195,9.582175293,0.644999715,-2.129378928,-9.32001784,9.582583083
12:21.4,1.42E+12,0.803529,-2.121688,-9.364377,9.63528803,0.649125135,-2.13332173,-9.3227781,9.586411746
12:21.4,1.42E+12,0.81011534,-1.9501446,-9.333241,9.569155573,0.653400245,-2.13105245,-9.3242211,9.587656033
12:21.5,1.42E+12,0.8690927,-2.1378543,-9.221724,9.506099971,0.660645179,-2.1296813,-9.32109562,9.584830379
12:21.5,1.42E+12,0.90441924,-2.0005898,-9.19433,9.452832266,0.665908235,-2.128498762,-9.31729054,9.581300345
12:21.5,1.42E+12,1.0033635,-2.095193,-9.257499,9.544519881,0.674242903,-2.129085542,-9.31777254,9.582593754
12:21.5,1.42E+12,1.016087,-2.117796,-9.412726,9.701386676,0.683263145,-2.128552648,-9.32008072,9.585458689
12:21.5,1.42E+12,1.0692265,-2.0447478,-9.302705,9.584600106,0.693286301,-2.125876212,-9.31868564,9.5843691
12:21.6,1.42E+12,1.1337423,-1.9639161,-9.366622,9.637216701,0.704483016,-2.121196942,-9.32041604,9.586031947
12:21.6,1.42E+12,1.0916798,-1.950444,-9.349558,9.61302405,0.71341045,-2.118352856,-9.32271228,9.588475534
12:21.6,1.42E+12,1.1807446,-1.9041902,-9.311237,9.57701585,0.723969492,-2.11058102,-9.32430796,9.589330023
12:21.6,1.42E+12,1.2189152,-1.8815873,-9.331894,9.59741479,0.736190078,-2.105329942,-9.3226524,9.58778112
12:21.6,1.42E+12,1.3314812,-1.8266515,-9.357042,9.626200334,0.749668052,-2.099761522,-9.32292484,9.588301749
12:21.7,1.42E+12,1.3418097,-1.9284397,-9.3437195,9.634543427,0.76476865,-2.095450486,-9.32273623,9.588719452
12:21.7,1.42E+12,1.3030403,-1.7286054,-9.379046,9.625616579,0.778956146,-2.086810454,-9.32476301,9.590342802
12:21.7,1.42E+12,1.3982424,-1.8660196,-9.326356,9.613429523,0.793200526,-2.08414899,-9.32402055,9.590630415
12:21.8,1.42E+12,1.5175443,-1.8868263,-9.347162,9.655697367,0.81036683,-2.077404016,-9.32464025,9.591731606
12:21.8,1.42E+12,1.6594491,-1.9505937,-9.207802,9.557311587,0.831359174,-2.072673854,-9.32306853,9.591679186
12:21.8,1.42E+12,1.5593075,-1.9032921,-9.230255,9.552568663,0.849869684,-2.067946684,-9.32158061,9.591360432
12:21.8,1.42E+12,1.4989829,-1.7790505,-9.2521105,9.540100582,0.868029921,-2.060707734,-9.31920356,9.589550848
12:21.8,1.42E+12,1.6263679,-1.8848804,-9.218281,9.548536603,0.887794819,-2.056597282,-9.31801804,9.589890995
12:21.8,1.42E+12,1.5631993,-1.8256036,-9.192534,9.501531555,0.906981919,-2.051525826,-9.31394052,9.587069223
12:21.8,1.42E+12,1.4184504,-2.0628603,-9.335486,9.665334604,0.922836949,-2.050831272,-9.31215024,9.586858991
12:21.9,1.42E+12,1.4284794,-1.833088,-9.177266,9.46694123,0.938697965,-2.045789756,-9.30786018,9.583369392
12:21.9,1.42E+12,1.4965879,-1.9598744,-9.346563,9.666391411,0.955714581,-2.041266164,-9.3071746,9.583621038
12:21.9,1.42E+12,1.377735,-2.085613,-9.349558,9.677921787,0.970213431,-2.039775264,-9.3059322,9.583610774
12:21.9,1.42E+12,1.3211527,-2.0612137,-9.293574,9.610648473,0.983508783,-2.035739658,-9.30443232,9.582617067
12:21.9,1.42E+12,1.2933105,-1.9119741,-9.346713,9.627530364,0.997184343,-2.030455648,-9.30642318,9.584781311
12:22.0,1.42E+12,1.3536351,-1.9763402,-9.206755,9.513284722,1.012347811,-2.02659967,-9.30306118,9.582228287
12:22.0,1.42E+12,1.3145664,-1.8961071,-9.23774,9.521509715,1.024514512,-2.019214028,-9.30428264,9.583088475
12:22.0,1.42E+12,1.3627661,-1.7905765,-9.259595,9.529081551,1.040088126,-2.012732506,-9.30262708,9.581740072
12:22.0,1.42E+12,1.4132112,-1.8131795,-9.285192,9.565541086,1.058493851,-2.006978476,-9.30044163,9.580268489
12:22.1,1.42E+12,1.3280383,-1.8958076,-9.269923,9.554540523,1.070828201,-2.004092478,-9.30081285,9.581353284
12:22.1,1.42E+12,1.3515395,-1.8955083,-9.270971,9.558792498,1.085282145,-1.999218616,-9.29936687,9.580416334
12:22.1,1.42E+12,1.4497353,-1.7682729,-9.221424,9.500693768,1.104035148,-1.99117135,-9.29853459,9.579875476
12:22.1,1.42E+12,1.4187497,-1.935026,-9.1765175,9.485022391,1.117860398,-1.985222718,-9.29616352,9.577835006
12:22.1,1.42E+12,1.4914985,-1.8679656,-9.230106,9.534606443,1.133110687,-1.979163318,-9.29498397,9.577182993
12:22.1,1.42E+12,1.4985337,-1.830693,-9.182505,9.482375134,1.148235234,-1.973966126,-9.29328949,9.576249319
12:22.2,1.42E+12,1.4805712,-1.7612375,-9.188193,9.471902619,1.165242867,-1.965852996,-9.29036157,9.573617467
12:22.2,1.42E+12,1.6575032,-1.7384849,-9.202863,9.511168908,1.182693578,-1.956940534,-9.28992749,9.5735998
12:22.2,1.42E+12,1.5190412,-1.8202149,-9.257199,9.555961583,1.199719174,-1.948504076,-9.28945147,9.573293224
12:22.2,1.42E+12,1.4920971,-1.9339783,-9.198671,9.517466784,1.215370626,-1.942729086,-9.29032265,9.574687517
12:22.2,1.42E+12,1.420995,-1.8526973,-9.134006,9.427713386,1.232048943,-1.934822528,-9.28753545,9.572041789
12:22.3,1.42E+12,1.3494438,-1.9856209,-9.19957,9.507669384,1.24381747,-1.929544502,-9.2844429,9.569176516
12:22.3,1.42E+12,1.1939173,-2.0282822,-9.261391,9.555769485,1.253226904,-1.92879007,-9.27986842,9.565505841
12:22.3,1.42E+12,1.2949572,-1.9712508,-9.376501,9.668583912,1.265597181,-1.92854458,-9.27734466,9.564256814
12:22.3,1.42E+12,1.1928694,-1.8592836,-9.221125,9.482036658,1.274264157,-1.925559788,-9.27480296,9.562064217
12:22.3,1.42E+12,1.2064911,-1.9371217,-9.197923,9.476805832,1.285517756,-1.925631636,-9.27250376,9.560935372
12:22.4,1.42E+12,1.1109897,-1.9019449,-9.24268,9.501517042,1.2916999,-1.92370664,-9.27228822,9.560952804
12:22.4,1.42E+12,1.093027,-1.9106269,-9.191187,9.451091029,1.298887952,-1.920673946,-9.27010276,9.558883355
12:22.4,1.42E+12,1.0761123,-1.9061362,-9.267677,9.522668212,1.3061269,-1.918781884,-9.26858191,9.557693213
12:22.4,1.42E+12,0.96938413,-2.1347108,-9.302106,9.593011614,1.309444002,-1.91904234,-9.26733649,9.556847685
12:22.4,1.42E+12,1.0063573,-2.1263282,-9.263786,9.557811344,1.313368841,-1.922566012,-9.26594739,9.5566208
12:22.5,1.42E+12,1.133892,-1.9778371,-9.226214,9.503713771,1.318664827,-1.919365668,-9.26603719,9.556573076
12:22.5,1.42E+12,1.1558963,-1.8288968,-9.395661,9.641545799,1.323694369,-1.915931808,-9.27006381,9.560347347
12:22.5,1.42E+12,1.2343332,-1.8642234,-9.229507,9.496457592,1.328313763,-1.911312416,-9.26950397,9.559386101
12:22.5,1.42E+12,1.3168117,-1.9041902,-9.260492,9.545503939,1.334328257,-1.9070403,-9.26645929,9.556268446
12:22.6,1.42E+12,1.3370197,-1.8627264,-9.285192,9.564107998,1.339684121,-1.903399872,-9.26610903,9.555858604
12:22.6,1.42E+12,1.3557308,-1.9070343,-9.289233,9.579385969,1.344123891,-1.902262236,-9.26456125,9.554701989
12:22.6,1.42E+12,1.3889617,-1.9736458,-9.192833,9.504350105,1.350069529,-1.902726272,-9.26142675,9.552528511
12:22.6,1.42E+12,1.3862672,-1.9570303,-9.084758,9.395984901,1.354179981,-1.903783074,-9.25689717,9.548907892
12:22.6,1.42E+12,1.3810282,-1.9453546,-8.974887,9.286562339,1.357422241,-1.90505842,-9.24975703,9.542690843
12:22.6,1.42E+12,1.2129277,-1.9306852,-9.205557,9.48372388,1.355051171,-1.907139094,-9.24672733,9.539841313
12:22.7,1.42E+12,1.3361216,-1.8381774,-9.261241,9.535968852,1.354937409,-1.905333848,-9.24507776,9.537869822
12:22.8,1.42E+12,1.2859758,-1.8628762,-9.413624,9.681960458,1.354596119,-1.908019264,-9.24576932,9.5389967
12:22.8,1.42E+12,1.4323714,-1.8402731,-9.413475,9.698030959,1.355278699,-1.907504334,-9.2475117,9.540688728
12:22.8,1.42E+12,1.3304334,-1.8775456,-9.263038,9.544585036,1.351536481,-1.90731872,-9.24582922,9.538466482
12:22.8,1.42E+12,1.4103671,-1.8676661,-9.241333,9.533076504,1.346554841,-1.905660168,-9.24649984,9.53798178
12:22.8,1.42E+12,1.3617183,-1.812431,-9.26199,9.535388908,1.342603057,-1.903842946,-9.24713454,9.537638185
12:22.8,1.42E+12,1.5206877,-1.7904267,-9.190588,9.486043782,1.343037153,-1.90407047,-9.24590409,9.536557049
12:22.8,1.42E+12,1.3745915,-1.8613793,-9.19433,9.481030473,1.338001625,-1.903600448,-9.24542507,9.535206926
12:22.8,1.42E+12,1.4558725,-1.8625767,-9.361981,9.655850296,1.335855089,-1.90433991,-9.24881401,9.538293301
12:22.8,1.42E+12,1.5643969,-1.7666262,-9.294172,9.589053079,1.338774019,-1.898415228,-9.24798773,9.536767671
12:22.9,1.42E+12,1.6845969,-1.750909,-9.1202345,9.438338115,1.343896369,-1.896771648,-9.2468471,9.536195608
12:22.9,1.42E+12,1.5555652,-1.7911752,-9.263038,9.56200631,1.345075915,-1.893397664,-9.2451766,9.534107906
12:22.9,1.42E+12,1.4721886,-1.905238,-9.193582,9.503642518,1.346964987,-1.889790164,-9.24205708,9.530622321
12:22.9,1.42E+12,1.5880476,-2.0017872,-9.377699,9.719582589,1.352302885,-1.888601634,-9.24373958,9.532801003
12:22.9,1.42E+12,1.434916,-1.9368224,-9.215885,9.525901599,1.355134995,-1.8890986,-9.24112302,9.530768428
12:23.0,1.42E+12,1.3711487,-1.9202069,-9.17038,9.469060811,1.355485267,-1.887975934,-9.24039552,9.52988395
12:23.0,1.42E+12,1.3581258,-1.9598744,-9.234746,9.537617472,1.356356455,-1.88925128,-9.24033564,9.530206105
12:23.1,1.42E+12,1.3813275,-1.9157163,-9.29058,9.586079039,1.356727683,-1.891754076,-9.24095534,9.531346055
12:23.1,1.42E+12,1.2451108,-1.8860779,-9.362131,9.631048105,1.353365675,-1.893212044,-9.24249412,9.532656195
12:23.1,1.42E+12,1.3040881,-2.002835,-9.32905,9.630325421,1.352886671,-1.895352592,-9.24367666,9.534171893
12:23.1,1.42E+12,1.278192,-1.9577788,-9.30061,9.589995776,1.351419721,-1.896598002,-9.24426944,9.534795958
12:23.1,1.42E+12,1.364263,-1.9438577,-9.304801,9.603078566,1.349710275,-1.900109698,-9.24593698,9.536843654
12:23.1,1.42E+12,1.2741504,-2.0218456,-9.248368,9.552153136,1.346818289,-1.90184609,-9.24737399,9.538186269
12:23.1,1.42E+12,1.2418176,-1.9386187,-9.217083,9.500261704,1.341824671,-1.903259152,-9.24711353,9.537499375
12:23.1,1.42E+12,1.3202546,-1.9151175,-9.250763,9.53872965,1.338259089,-1.904947642,-9.24847869,9.538626465
12:23.2,1.42E+12,1.3992902,-1.9779868,-9.297466,9.607982039,1.336633469,-1.909282628,-9.25066415,9.541348053
12:23.2,1.42E+12,1.3560301,-1.9833755,-9.377399,9.680299996,1.330604007,-1.91418044,-9.25415487,9.544730675
12:23.2,1.42E+12,1.3379178,-1.8318906,-9.140293,9.417579484,1.326981539,-1.914413954,-9.25181675,9.541963033
12:23.2,1.42E+12,1.2666659,-1.8827847,-9.219178,9.494343775,1.322472915,-1.913390082,-9.25222689,9.541500573
12:23.2,1.42E+12,1.253194,-1.7546512,-9.206605,9.455732212,1.319116895,-1.91142916,-9.25367887,9.542060949
12:23.3,1.42E+12,1.3130695,-1.8220111,-9.296568,9.563997728,1.318389409,-1.908156964,-9.25561883,9.543187516
12:23.3,1.42E+12,1.0737172,-1.8863772,-9.335187,9.58420596,1.315985407,-1.905318864,-9.25709475,9.543756246
12:23.3,1.42E+12,1.178649,-1.8067429,-9.270073,9.517761648,1.313659243,-1.902028706,-9.25496619,9.5407398
12:23.3,1.42E+12,1.2184662,-2.0079246,-9.319171,9.610586309,1.314171179,-1.905001526,-9.25692711,9.543310794
12:23.4,1.42E+12,1.1337423,-1.8714083,-9.234297,9.48998323,1.312716203,-1.903687258,-9.25765459,9.543574341
12:23.4,1.42E+12,0.99587905,-1.9531385,-9.3050995,9.55988503,1.31041399,-1.90471113,-9.25890298,9.544741701
12:23.4,1.42E+12,1.0566527,-2.0055294,-9.255104,9.528673211,1.309686504,-1.90660918,-9.26018132,9.546293345
12:23.4,1.42E+12,0.9859996,-1.9103274,-9.219927,9.467238239,1.30788425,-1.906693004,-9.25922632,9.545184745
12:23.4,1.42E+12,1.1021581,-1.9758911,-9.288784,9.560355972,1.310539729,-1.90351661,-9.25895988,9.544531633
12:23.4,1.42E+12,0.9541159,-1.9775376,-9.220675,9.478493528,1.309494901,-1.900540798,-9.25809766,9.542945276
12:23.5,1.42E+12,1.022823,-2.0444486,-9.227561,9.506514555,1.307273521,-1.901873028,-9.2581246,9.543001292
12:23.5,1.42E+12,1.1340418,-1.8925145,-9.311836,9.569636964,1.306836431,-1.903145382,-9.2564481,9.541563115
12:23.5,1.42E+12,1.0505154,-2.0598664,-9.336684,9.618747336,1.303160075,-1.907058242,-9.25859164,9.54400891
12:23.5,1.42E+12,1.0036628,-1.8462607,-9.227711,9.463966816,1.296897097,-1.905899652,-9.25793602,9.542378168
12:23.5,1.42E+12,1.1172767,-1.9727477,-9.35345,9.624295694,1.292502237,-1.908100078,-9.25930118,9.543581922
12:23.6,1.42E+12,1.0563533,-1.8348843,-9.283545,9.521916323,1.286514687,-1.906657078,-9.25918742,9.542432529
12:23.6,1.42E+12,1.0665321,-1.7193246,-9.375903,9.591721684,1.280066095,-1.901570654,-9.26284882,9.54417996
12:23.6,1.42E+12,1.2240046,-1.9910097,-9.197923,9.490210451,1.276820843,-1.902250242,-9.26511212,9.546064471
12:23.6,1.42E+12,1.2268487,-1.9643651,-9.350156,9.63272055,1.273737253,-1.902630452,-9.2726175,9.552987635
12:23.6,1.42E+12,1.1850857,-1.8239571,-9.402248,9.650570712,1.273180413,-1.90049589,-9.27655132,9.556324572
12:23.7,1.42E+12,1.1876303,-1.9568807,-9.306297,9.58368466,1.270210587,-1.902869956,-9.27745244,9.557278888
12:23.7,1.42E+12,1.2277468,-1.7839901,-9.296867,9.545769686,1.269046007,-1.901292234,-9.2751173,9.554555073
12:23.7,1.42E+12,1.2707076,-1.9296373,-9.311387,9.593754519,1.265812731,-1.903079518,-9.27307554,9.552469544
12:23.7,1.42E+12,1.1903247,-1.9434086,-9.326206,9.600616034,1.263010557,-1.904396778,-9.2743389,9.553590164
12:23.7,1.42E+12,1.2382251,-1.8673668,-9.374556,9.638597427,1.259567717,-1.904390792,-9.27700336,9.555700582
12:23.8,1.42E+12,1.1258088,-1.8886226,-9.316925,9.5728487,1.254849527,-1.905914624,-9.27810206,9.556449778
12:23.8,1.42E+12,1.1776012,-1.9130218,-9.283694,9.551616161,1.247987797,-1.908366526,-9.27996418,9.557761226
12:23.8,1.42E+12,1.1765534,-1.8553917,-9.277408,9.533994727,1.244027035,-1.908246774,-9.28162574,9.558820511
12:23.8,1.42E+12,1.1802956,-1.8287472,-9.29537,9.546796188,1.238515497,-1.907570184,-9.28029352,9.556639429
12:23.8,1.42E+12,1.1636801,-2.0016375,-9.22831,9.51432654,1.230501161,-1.91227041,-9.27897628,9.555144898
12:23.9,1.42E+12,1.1326946,-1.9618204,-9.3083935,9.580079639,1.219463115,-1.916488638,-9.28273946,9.557979728
12:23.9,1.42E+12,1.1674223,-1.9264939,-9.166339,9.439069034,1.211700257,-1.919195012,-9.28080548,9.555520983
12:23.9,1.42E+12,1.2521461,-1.9740949,-9.333241,9.621554349,1.207299407,-1.92057215,-9.28359866,9.55787922
12:23.9,1.42E+12,1.3371693,-1.9113753,-9.347611,9.634272608,1.202281841,-1.918763912,-9.2829969,9.55617302
12:23.9,1.42E+12,1.3175601,-1.9384689,-9.289383,9.580514747,1.199934723,-1.918796842,-9.28446686,9.557265283
12:24.1,1.42E+12,1.2452605,-1.9261944,-9.325008,9.602951254,1.197416959,-1.918916592,-9.28755942,9.559943092
12:24.1,1.42E+12,1.3624667,-2.0276835,-9.265882,9.582504115,1.197503777,-1.920272774,-9.28818214,9.560840825
12:24.1,1.42E+12,1.3286371,-1.9435583,-9.166937,9.464429691,1.196449969,-1.920829614,-9.28570928,9.558407838
12:24.1,1.42E+12,1.283431,-2.031725,-9.292676,9.598381574,1.197216373,-1.923742556,-9.28432018,9.557754507
12:24.1,1.42E+12,1.2778926,-1.9998413,-9.339528,9.636345676,1.196692463,-1.923682682,-9.28452974,9.557874912
12:24.1,1.42E+12,1.1069481,-2.0152593,-9.235195,9.517112526,1.193267585,-1.924832292,-9.28322144,9.556417247
12:24.1,1.42E+12,1.2099339,-1.8652711,-9.200019,9.464857417,1.190181003,-1.92326056,-9.2811258,9.553652824
12:24.2,1.42E+12,1.1139835,-1.9026933,-9.244626,9.503910296,1.186977665,-1.920877514,-9.28105096,9.552687967
12:24.2,1.42E+12,1.1186239,-1.9143691,-9.379795,9.638292521,1.184513791,-1.920392522,-9.2843052,9.555448584
12:24.2,1.42E+12,1.0330019,-1.9434086,-9.404493,9.658592988,1.178768737,-1.920958344,-9.2873798,9.55784585
12:24.2,1.42E+12,1.151705,-1.7928218,-9.328301,9.568585787,1.173817033,-1.917255044,-9.2879965,9.557057925
12:24.2,1.42E+12,1.1320958,-1.875001,-9.24762,9.50345965,1.169338347,-1.915087554,-9.28540092,9.553521119
12:24.2,1.42E+12,1.0036628,-1.8672171,-9.238488,9.478581077,1.162653247,-1.915794084,-9.28736482,9.55474115
12:24.2,1.42E+12,1.0909314,-1.8116826,-9.260044,9.498459878,1.159138557,-1.914372042,-9.28818214,9.554823472
12:24.2,1.42E+12,1.0310559,-1.7839901,-9.251811,9.478486363,1.154695795,-1.91495882,-9.28908626,9.555278555
12:24.3,1.42E+12,1.171464,-1.7519568,-9.301956,9.537718069,1.151863685,-1.913557734,-9.28919402,9.554752962
12:24.3,1.42E+12,1.1458671,-1.8241067,-9.373957,9.618287088,1.153306683,-1.912312324,-9.28996942,9.555434585
12:24.3,1.42E+12,1.3186079,-1.8970052,-9.3100395,9.592402776,1.156105861,-1.91411757,-9.29076875,9.556927407
12:24.4,1.42E+12,1.3795313,-1.9035915,-9.236842,9.531317713,1.159327163,-1.912030908,-9.28912217,9.555342035
12:24.4,1.42E+12,1.3826747,-1.8589842,-9.361981,9.644392144,1.164305811,-1.911782426,-9.29167585,9.558430214
12:24.4,1.42E+12,1.4337186,-1.87545,-9.304951,9.599738269,1.173062602,-1.910228656,-9.29167288,9.559227279
12:24.4,1.42E+12,1.4099181,-1.9538869,-9.260642,9.568961977,1.18012791,-1.909195806,-9.29178364,9.560033054
12:24.4,1.42E+12,1.3687537,-1.8959574,-9.310788,9.599943455,1.187782992,-1.908908406,-9.29360086,9.562687158
12:24.4,1.42E+12,1.2466077,-1.9218535,-9.2184305,9.498790055,1.190671984,-1.907827654,-9.29219379,9.56145584
12:24.4,1.42E+12,1.2693603,-1.8970052,-9.282198,9.558718743,1.196976872,-1.906217006,-9.29342425,9.563060344
12:24.5,1.42E+12,1.1687695,-1.8943107,-9.301059,9.563688289,1.199895802,-1.903214248,-9.29489421,9.564203819
12:24.5,1.42E+12,1.171913,-1.9574794,-9.275311,9.55177993,1.200653226,-1.904513546,-9.29416371,9.563846678
12:24.5,1.42E+12,1.131497,-1.8405725,-9.278904,9.527121917,1.202272858,-1.900127668,-9.29300811,9.56201417
12:24.5,1.42E+12,1.1268567,-1.9169137,-9.272468,9.535356677,1.204736736,-1.901540728,-9.29390325,9.563441967
12:24.5,1.42E+12,0.96399534,-1.9655626,-9.205707,9.462439681,1.201671109,-1.901397026,-9.29094839,9.560204847
12:24.6,1.42E+12,1.0401869,-1.9089803,-9.250164,9.502195988,1.201347781,-1.902878946,-9.29028077,9.55981044
12:24.6,1.42E+12,1.1262579,-1.9077828,-9.452992,9.70912714,1.202542297,-1.90664811,-9.29182255,9.562158549
12:24.6,1.42E+12,1.2641213,-1.9353255,-9.417516,9.697066312,1.203344631,-1.905534426,-9.29621441,9.566295666
12:24.6,1.42E+12,1.237327,-1.9396664,-9.171428,9.455600214,1.203554197,-1.905040452,-9.29263985,9.56275326
12:24.6,1.42E+12,1.3211527,-1.8372793,-9.248817,9.521641433,1.206275537,-1.905306896,-9.28957123,9.560174674
12:24.7,1.42E+12,1.2683126,-1.8190173,-9.147478,9.412427665,1.207889183,-1.902549628,-9.28639485,9.556749534
12:24.7,1.42E+12,1.4443464,-1.9151175,-9.315129,9.619014495,1.212221175,-1.905172176,-9.28676009,9.55821443
12:24.7,1.42E+12,1.3834232,-1.864373,-9.413624,9.695672398,1.214475487,-1.90386689,-9.28880483,9.560252788
12:24.7,1.42E+12,1.3169614,-1.9128722,-9.304801,9.590244472,1.217008221,-1.903256162,-9.28837673,9.560045357
12:24.7,1.42E+12,1.4069242,-1.9477496,-9.362431,9.665830458,1.220382203,-1.904863818,-9.28813423,9.560590017
12:24.8,1.42E+12,1.332978,-1.8996996,-9.259146,9.545547316,1.224525587,-1.905085358,-9.28697865,9.56004399
12:24.8,1.42E+12,1.2847782,-1.9169137,-9.301357,9.58334259,1.226669127,-1.905163196,-9.28733191,9.560678518
12:24.8,1.42E+12,1.2126284,-1.8565892,-9.340127,9.599758511,1.227390627,-1.905187146,-9.28858629,9.561993794
12:24.8,1.42E+12,1.2702584,-1.8193167,-9.356893,9.616387901,1.229189883,-1.904998536,-9.28981675,9.563385628
12:24.8,1.42E+12,1.2976515,-1.8965561,-9.236842,9.518407146,1.231869311,-1.902896908,-9.28998739,9.56346724
12:24.9,1.42E+12,1.223406,-1.900897,-9.279054,9.550443695,1.233683539,-1.90167844,-9.2894006,9.562874521
12:24.9,1.42E+12,1.1038046,-1.984124,-9.299861,9.5730114,1.232411185,-1.902831042,-9.29207104,9.565553369
12:24.9,1.42E+12,1.0903326,-1.9531385,-9.245973,9.512706865,1.229174915,-1.902411914,-9.29032568,9.563376419
12:24.9,1.42E+12,1.0347981,-1.9161654,-9.376053,9.625635917,1.223127491,-1.902507716,-9.29089452,9.563203685
12:24.9,1.42E+12,1.0368937,-1.9800824,-9.279054,9.544460068,1.217514163,-1.903339986,-9.29068794,9.562482592
12:25.0,1.42E+12,1.1294014,-1.9233503,-9.279353,9.54364794,1.215196981,-1.903283104,-9.28977484,9.561296525
12:25.0,1.42E+12,1.1237133,-2.0085232,-9.247919,9.53000015,1.210421913,-1.902899898,-9.28941558,9.560246446
12:25.0,1.42E+12,1.194965,-1.7687219,-9.286538,9.5286991,1.207748471,-1.89940317,-9.2918076,9.561531834
12:25.0,1.42E+12,1.1820918,-1.8881736,-9.278904,9.542567789,1.205721687,-1.896532142,-9.29153216,9.560415559
12:25.0,1.42E+12,1.1220666,-1.9088305,-9.278755,9.539285177,1.202605167,-1.894711926,-9.2903167,9.558474349
12:25.1,1.42E+12,1.2319381,-1.9667602,-9.3541975,9.637781282,1.205104967,-1.893741944,-9.29269675,9.560887724
12:25.1,1.42E+12,1.1488609,-1.9468515,-9.244626,9.516996481,1.203883507,-1.895373552,-9.29358889,9.561930505
12:25.1,1.42E+12,1.1302996,-1.8911673,-9.331295,9.587865107,1.204209829,-1.895143032,-9.29532227,9.563609601
12:25.1,1.42E+12,1.2133768,-1.8630258,-9.322614,9.584063866,1.206104887,-1.894116166,-9.29417865,9.562525028
12:25.1,1.42E+12,1.1250604,-1.8703606,-9.398506,9.648622944,1.207946057,-1.892655206,-9.29405891,9.562325627
12:25.2,1.42E+12,1.2470567,-1.8839822,-9.266031,9.537498091,1.209853091,-1.894478414,-9.29281351,9.561703873
12:25.2,1.42E+12,1.2986994,-1.8940114,-9.246122,9.527049457,1.213185163,-1.894858622,-9.29278355,9.562175669
12:25.2,1.42E+12,1.2482543,-1.88024,-9.369616,9.63759022,1.218076993,-1.89511908,-9.29540611,9.565355852
12:25.2,1.42E+12,1.3058844,-1.9514918,-9.315429,9.60681382,1.222376053,-1.897915264,-9.29651381,9.567522931
12:25.2,1.42E+12,1.3275893,-1.8422191,-9.303753,9.576851489,1.228306721,-1.899079844,-9.29755265,9.569490234
12:25.3,1.42E+12,1.3431569,-1.884581,-9.217832,9.503901451,1.231740579,-1.901732328,-9.29587017,9.568813901
12:25.3,1.42E+12,1.1594888,-1.8299446,-9.265133,9.515030269,1.232013013,-1.901849086,-9.29369369,9.566748765
12:25.3,1.42E+12,1.2615765,-1.9895128,-9.278007,9.572416118,1.230872385,-1.903699238,-9.29305304,9.566349032
12:25.3,1.42E+12,1.3850697,-1.8297949,-9.355395,9.632755735,1.230983153,-1.902223306,-9.2954241,9.568377792
12:25.3,1.42E+12,1.3552817,-1.83698,-9.312883,9.588590813,1.230435293,-1.901783222,-9.29444214,9.567261766
12:25.4,1.42E+12,1.2802876,-1.8134788,-9.249415,9.512072305,1.227366673,-1.900543798,-9.29333142,9.565508446
12:25.4,1.42E+12,1.2946577,-1.9109262,-9.227262,9.511579339,1.225061465,-1.899684584,-9.29266382,9.564360793
12:25.4,1.42E+12,1.2106824,-1.8871257,-9.089997,9.362427075,1.221900039,-1.89950795,-9.288248,9.559610466
12:25.4,1.42E+12,1.0728191,-1.8353333,-9.237591,9.479054627,1.218424267,-1.897777546,-9.28863121,9.559215757
12:25.4,1.42E+12,1.1813434,-1.7821939,-9.167835,9.413871994,1.216663929,-1.89548132,-9.28634395,9.556318822
12:25.5,1.42E+12,1.2528946,-1.861978,-9.273665,9.541360987,1.218346431,-1.894834666,-9.28579607,9.555872276
12:25.5,1.42E+12,1.219514,-1.9332298,-9.320667,9.596844543,1.219298451,-1.894349674,-9.28670319,9.556773569
12:25.5,1.42E+12,1.1476635,-1.8601817,-9.243877,9.498771997,1.219621781,-1.894741858,-9.28600265,9.55620657
12:25.5,1.42E+12,1.1774515,-2.0791764,-9.292826,9.595101959,1.220633677,-1.897987112,-9.28640981,9.557401476
12:25.5,1.42E+12,1.1832893,-1.8857785,-9.334888,9.596690476,1.225019556,-1.89639143,-9.28899343,9.560086492
12:25.6,1.42E+12,1.1837384,-2.0445983,-9.303903,9.599178602,1.227890586,-1.89910379,-9.29006821,9.562026144
12:25.6,1.42E+12,1.1645782,-2.032174,-9.390123,9.677829483,1.228656992,-1.901591614,-9.28881083,9.561400191
12:25.6,1.42E+12,1.2674145,-1.9079324,-9.374705,9.650473532,1.228722856,-1.901043752,-9.28795461,9.560468335
12:25.7,1.42E+12,1.2692107,-1.87545,-9.360335,9.630372777,1.22936053,-1.899759424,-9.29173275,9.563963787
12:25.7,1.42E+12,1.2674145,-1.9886147,-9.298214,9.59258628,1.228285766,-1.902786132,-9.29272069,9.565382683
12:25.7,1.42E+12,1.1515553,-1.988914,-9.265732,9.546499254,1.22595062,-1.906184066,-9.29508577,9.568064115
12:25.7,1.42E+12,1.1831397,-1.9718496,-9.3293495,9.608578068,1.220726486,-1.907318708,-9.29537018,9.567855387
12:25.7,1.42E+12,1.2039464,-1.8486557,-9.131461,9.394178773,1.21713695,-1.907004362,-9.28972692,9.561825514
12:25.7,1.42E+12,1.2846286,-1.8682649,-9.203462,9.478628443,1.216490294,-1.906112216,-9.28770014,9.559593194
12:25.7,1.42E+12,1.2159215,-2.0170555,-9.202863,9.499456057,1.21267024,-1.907498334,-9.28450878,9.556265706
12:25.8,1.42E+12,1.119522,-2.032174,-9.34836,9.631972558,1.20840112,-1.910147822,-9.28629306,9.55799421
12:25.8,1.42E+12,1.247356,-1.9157163,-9.231303,9.510143059,1.207652676,-1.910123874,-9.28489198,9.55653022
12:25.8,1.42E+12,1.3793815,-1.8217118,-9.356443,9.631425274,1.210987738,-1.909426326,-9.2852183,9.557163555
12:25.8,1.42E+12,1.4374608,-1.8146764,-9.325158,9.608221256,1.214331786,-1.90933352,-9.2845836,9.557000222
12:25.8,1.42E+12,1.3945001,-1.7304016,-9.371562,9.63146378,1.216268758,-1.90601043,-9.287278,9.559261355
12:25.9,1.42E+12,1.314716,-1.8699116,-9.35315,9.628419521,1.218094958,-1.905390722,-9.28875992,9.560820871
12:25.9,1.42E+12,1.3108242,-2.0151095,-9.334589,9.63916377,1.22223535,-1.906010432,-9.28945448,9.562143919
12:25.9,1.42E+12,1.1660751,-1.9199076,-9.360335,9.626092023,1.2237502,-1.905345814,-9.29174172,9.564411622
12:25.9,1.42E+12,1.1150312,-1.7774038,-9.289982,9.523981542,1.225354862,-1.902570582,-9.2900203,9.562378534
12:25.9,1.42E+12,1.2723541,-1.7570462,-9.32396,9.572999863,1.23006407,-1.898109858,-9.29091842,9.56294933
12:26.0,1.42E+12,1.2082874,-1.9410137,-9.310938,9.587547083,1.23164179,-1.898463126,-9.29155012,9.563827313
12:26.0,1.42E+12,1.1526031,-1.9911593,-9.335636,9.614952355,1.232219586,-1.898115848,-9.29330446,9.565526357
12:26.0,1.42E+12,1.1189232,-1.8844314,-9.182205,9.440124972,1.23069875,-1.900430038,-9.2912178,9.563754875
12:26.0,1.42E+12,1.1084449,-1.8080901,-9.321865,9.560073587,1.229225812,-1.898828368,-9.29207702,9.564104991
12:26.0,1.42E+12,1.0086026,-1.9505937,-9.249865,9.506949958,1.226956532,-1.899663632,-9.29149922,9.563458286
12:26.1,1.42E+12,1.0931767,-2.003434,-9.1676855,9.447499167,1.224181304,-1.900397108,-9.28776898,9.559652644
12:26.1,1.42E+12,1.146915,-1.8660196,-9.36782,9.620472687,1.224142386,-1.89878047,-9.29023286,9.561722168
12:26.1,1.42E+12,1.1825409,-1.9023939,-9.313333,9.578918368,1.225187212,-1.899005002,-9.28987362,9.561543233
12:26.1,1.42E+12,1.1862831,-1.8582358,-9.294472,9.552356654,1.224645338,-1.898909202,-9.28931078,9.560909089
12:26.2,1.42E+12,1.219514,-1.9700532,-9.2331,9.519372858,1.22653441,-1.900903054,-9.28600266,9.558324087
12:26.2,1.42E+12,1.3015435,-1.9396664,-9.276509,9.566082817,1.227624146,-1.902016738,-9.28621222,9.558895782
12:26.2,1.42E+12,1.2566369,-1.945205,-9.373058,9.654904197,1.226782896,-1.90304061,-9.28875094,9.561452877
12:26.2,1.42E+12,1.2046949,-1.9303857,-9.29043,9.565028402,1.225911708,-1.904043524,-9.28716722,9.56000164
12:26.2,1.42E+12,1.1689192,-1.927392,-9.253008,9.523621636,1.223172404,-1.903561528,-9.2859188,9.558337797
12:26.2,1.42E+12,1.18778,-2.0333717,-9.140293,9.438769937,1.220376218,-1.90738458,-9.2826496,9.555576166
12:26.3,1.42E+12,1.2687616,-1.8878741,-9.235644,9.51162156,1.218888312,-1.907450442,-9.28300584,9.555730568
12:26.3,1.42E+12,1.3302836,-1.8293458,-9.271121,9.54305219,1.222304208,-1.907438466,-9.2831256,9.556291006
12:26.3,1.42E+12,1.3245955,-2.0031345,-9.332193,9.636229929,1.223564588,-1.9077109,-9.28420932,9.557567282
12:26.3,1.42E+12,1.3627661,-1.8953586,-9.3470125,9.6341143,1.223118516,-1.909022174,-9.28404167,9.557594454
12:26.3,1.42E+12,1.375789,-1.895658,-9.210197,9.503370108,1.223528662,-1.910195734,-9.28198795,9.55589004
12:26.4,1.42E+12,1.35124,-1.9989432,-9.26693,9.575887169,1.22494771,-1.913905022,-9.28233825,9.557166337
12:26.4,1.42E+12,1.2732522,-1.888922,-9.239686,9.516354074,1.2245196,-1.913464938,-9.28258673,9.557261832
12:26.4,1.42E+12,1.4171032,-1.9205062,-9.331295,9.63169725,1.228648016,-1.914132548,-9.28741269,9.562647235
12:26.4,1.42E+12,1.2564871,-1.9246975,-9.2537565,9.534947806,1.232321376,-1.915919832,-9.287736,9.563765099
12:26.4,1.42E+12,1.341211,-1.877396,-9.459728,9.737038386,1.235518728,-1.917823874,-9.29357386,9.570228427
12:26.5,1.42E+12,1.2811857,-1.8015038,-9.31453,9.573260775,1.23608455,-1.91661439,-9.29439116,9.570866422
12:26.5,1.42E+12,1.2325369,-1.9011965,-9.373957,9.643897821,1.236345008,-1.915973724,-9.29545696,9.571807488
12:26.5,1.42E+12,1.1178753,-1.8883232,-9.264833,9.521162755,1.235749244,-1.916536554,-9.29587608,9.572255303
12:26.5,1.42E+12,1.1412268,-1.9946022,-9.366173,9.643963563,1.23502475,-1.91484507,-9.29734302,9.573232535
12:26.5,1.42E+12,1.3115726,-1.9196081,-9.400302,9.683532188,1.237590416,-1.915521662,-9.2986513,9.574969369
12:26.6,1.42E+12,1.2906162,-1.8377284,-9.268426,9.536595638,1.239727972,-1.911384264,-9.29794176,9.57371771
12:26.6,1.42E+12,1.1843371,-1.9359242,-9.225466,9.500509449,1.24012315,-1.909459268,-9.29464862,9.570171309
12:26.7,1.42E+12,1.2022998,-1.8896704,-9.339378,9.604184528,1.238820856,-1.909094028,-9.29394208,9.569245529
12:26.7,1.42E+12,1.1978091,-1.8368303,-9.443711,9.694966201,1.237392824,-1.908321634,-9.2956096,9.570537398
12:26.7,1.42E+12,1.2322376,-1.8272502,-9.355395,9.611486274,1.236689286,-1.905094344,-9.29675322,9.570915398
12:26.7,1.42E+12,1.1259586,-1.7362394,-9.302256,9.529652497,1.236177352,-1.900040852,-9.2974837,9.570578463
12:26.7,1.42E+12,1.2696598,-1.7860858,-9.197623,9.455073101,1.237907754,-1.896325576,-9.29484917,9.567508363
12:26.7,1.42E+12,1.2196637,-1.7432748,-9.430539,9.667556692,1.2382221,-1.894217958,-9.30083073,9.572975922
12:26.7,1.42E+12,1.1663746,-1.8428178,-9.389674,9.63962577,1.23585702,-1.893709016,-9.30455497,9.576195868
12:26.7,1.42E+12,1.2419673,-1.9886147,-9.39162,9.679855238,1.236377936,-1.8931402,-9.30833011,9.579803852
12:26.8,1.42E+12,1.2499008,-1.8857785,-9.2697735,9.541861103,1.238985512,-1.89021229,-9.30675838,9.578001623
12:26.8,1.42E+12,1.1096425,-1.8679656,-9.362131,9.610936418,1.236231242,-1.889257276,-9.30937494,9.58001749
12:26.8,1.42E+12,1.2696598,-1.9308348,-9.463321,9.741386112,1.234036808,-1.891439736,-9.3115125,9.582216707
12:26.8,1.42E+12,1.2796888,-1.9507434,-9.341624,9.628548291,1.230881368,-1.894161076,-9.31184182,9.582623247
12:26.9,1.42E+12,1.2632232,-1.8781444,-9.36273,9.632438543,1.22825583,-1.897115932,-9.31166518,9.582642743
12:26.9,1.42E+12,1.2540921,-1.9600241,-9.384884,9.669047997,1.227043352,-1.898918182,-9.31229986,9.583455312
12:26.9,1.42E+12,1.2316388,-1.886527,-9.308543,9.577311264,1.225459644,-1.896346532,-9.31177894,9.582218262
12:27.0,1.42E+12,1.3280383,-1.90913,-9.405392,9.688646023,1.228698908,-1.89613098,-9.31268008,9.583469342
12:27.0,1.42E+12,1.2472064,-1.7910255,-9.341774,9.593332977,1.231342412,-1.896403414,-9.31371592,9.584856371
12:27.0,1.42E+12,1.2518468,-1.8513501,-9.269624,9.535226621,1.230932266,-1.898289492,-9.3126292,9.584100906
12:27.0,1.42E+12,1.2726535,-1.9022442,-9.368119,9.64364213,1.232219588,-1.897514102,-9.31377282,9.585222807
12:27.0,1.42E+12,1.2843292,-1.9628682,-9.2609415,9.553396806,1.23485411,-1.89694828,-9.31227893,9.583991696
12:27.0,1.42E+12,1.2371773,-1.9745439,-9.256302,9.545080303,1.237219192,-1.89875053,-9.31376087,9.586090802
12:27.0,1.42E+12,1.1831397,-1.9020946,-9.31468,9.580242529,1.238713088,-1.90063062,-9.31361717,9.586494181
12:27.0,1.42E+12,1.2513977,-2.031725,-9.320667,9.621264782,1.24356899,-1.902253246,-9.31503321,9.588780478
12:27.1,1.42E+12,1.3207036,-2.028432,-9.411978,9.718236684,1.248119528,-1.902753206,-9.31991906,9.594195228
12:27.1,1.42E+12,1.203647,-1.9200572,-9.370813,9.640929521,1.249254168,-1.903833958,-9.31997892,9.594604365
12:27.1,1.42E+12,1.2094848,-1.9392173,-9.397009,9.670945939,1.249793046,-1.904570426,-9.32165244,9.596444916
12:27.1,1.42E+12,1.1500584,-1.8034497,-9.304502,9.547189252,1.249068552,-1.903474704,-9.32185304,9.596341568
12:27.1,1.42E+12,1.246907,-1.8959574,-9.411529,9.681234924,1.249616412,-1.901992788,-9.32542162,9.599578809
12:27.2,1.42E+12,1.2340338,-1.8890717,-9.467362,9.732542039,1.248266218,-1.900980894,-9.32923868,9.602907994
12:27.2,1.42E+12,1.3168117,-1.9767892,-9.363329,9.65989744,1.249469714,-1.901612578,-9.3290441,9.603007859
12:27.2,1.42E+12,1.2096345,-1.9166144,-9.338331,9.609425178,1.249568506,-1.901337152,-9.33000212,9.603895794
12:27.2,1.42E+12,1.2049942,-1.936523,-9.364377,9.638137214,1.250290006,-1.901519772,-9.3322295,9.606186106
12:27.3,1.42E+12,1.2269984,-1.8130298,-9.265882,9.52098584,1.251074374,-1.897112934,-9.33474128,9.607830424
12:27.3,1.42E+12,1.2314891,-1.8202149,-9.372011,9.626231759,1.250328924,-1.89575975,-9.33746862,9.610122628
12:27.3,1.42E+12,1.1774515,-1.9272423,-9.424103,9.690942796,1.247272282,-1.89771768,-9.34052826,9.61308044
12:27.3,1.42E+12,1.2193643,-1.8428178,-9.336085,9.594024696,1.245167658,-1.894511346,-9.3406061,9.612236335
12:27.3,1.42E+12,1.1451187,-1.9583775,-9.336984,9.60863203,1.24081471,-1.895771724,-9.34040553,9.61172669
12:27.3,1.42E+12,1.2650194,-1.8055453,-9.371412,9.627233808,1.238599318,-1.89396947,-9.34362983,9.614203964
12:27.4,1.42E+12,1.1876303,-1.8239571,-9.331894,9.582355183,1.235327124,-1.890469748,-9.34492911,9.614333324
12:27.4,1.42E+12,1.1746074,-1.838926,-9.258397,9.512058998,1.233354228,-1.889469828,-9.34530333,9.614247423
12:27.4,1.42E+12,1.201701,-1.8514998,-9.310638,9.568705073,1.229046184,-1.8880897,-9.34489019,9.612987579
12:27.4,1.42E+12,1.3692027,-1.8895208,-9.231453,9.521802843,1.231300496,-1.887386166,-9.34444412,9.61272468
12:27.4,1.42E+12,1.2750485,-1.9404149,-9.275461,9.5616492,1.229977246,-1.888646544,-9.34075878,9.609216896
12:27.5,1.42E+12,1.1889775,-1.8293458,-9.35345,9.604540616,1.228133082,-1.889203384,-9.34153718,9.609842493
12:27.5,1.42E+12,1.2939093,-1.8699116,-9.205557,9.482249224,1.22936053,-1.888577686,-9.33816918,9.606609521
12:27.5,1.42E+12,1.2994478,-1.9103274,-9.351953,9.633116851,1.23299198,-1.88901777,-9.33991158,9.608848603
12:27.5,1.42E+12,1.2418176,-1.8844314,-9.347312,9.615894877,1.235003796,-1.886814354,-9.33953436,9.608287229
12:27.5,1.42E+12,1.2802876,-1.9802321,-9.326805,9.620277907,1.234378096,-1.888026834,-9.33806442,9.607022144
12:27.6,1.42E+12,1.2802876,-1.8887722,-9.290131,9.566249566,1.234171524,-1.88904771,-9.33849852,9.607615222
12:27.6,1.42E+12,1.2255015,-1.9481987,-9.329799,9.609499544,1.234994812,-1.8892932,-9.34058518,9.609795024
12:27.6,1.42E+12,1.3310322,-1.852847,-9.427995,9.700091672,1.23756946,-1.888556732,-9.34235752,9.611713167
12:27.6,1.42E+12,1.2467574,-1.9267932,-9.310339,9.589022283,1.238548426,-1.89035599,-9.33969008,9.609594289
12:27.6,1.42E+12,1.2395723,-1.8260527,-9.241931,9.501804911,1.23869512,-1.89033204,-9.3374208,9.607400661
12:27.7,1.42E+12,1.1288027,-1.9672092,-9.273965,9.5472789,1.238752002,-1.894951436,-9.33685498,9.607753189
12:27.7,1.42E+12,1.2382251,-1.864822,-9.362281,9.6261658,1.238123308,-1.89652616,-9.34014814,9.611175043
12:27.7,1.42E+12,1.1466156,-1.9130218,-9.29552,9.559344738,1.236662346,-1.8999211,-9.33744776,9.609010804
12:27.7,1.42E+12,1.2305909,-1.8949095,-9.340576,9.609963371,1.237946672,-1.900962934,-9.3364658,9.608417556
12:27.7,1.42E+12,1.1755055,-1.9428099,-9.3277025,9.600122781,1.236617436,-1.900046838,-9.33518745,9.606822907
12:27.8,1.42E+12,1.361868,-1.8444644,-9.331445,9.608985335,1.23885678,-1.899220556,-9.33642088,9.608165392
12:27.8,1.42E+12,1.1816428,-1.8697618,-9.195678,9.457948127,1.240296786,-1.89925648,-9.33309182,9.605105626
12:27.8,1.42E+12,1.2382251,-1.8363812,-9.272767,9.53360924,1.239668092,-1.897367408,-9.32928074,9.600950089
12:27.8,1.42E+12,1.1910732,-1.9182609,-9.231902,9.504019928,1.23789578,-1.896717758,-9.3270863,9.598459521
12:27.8,1.42E+12,1.2280463,-1.907184,-9.277108,9.550402157,1.237192242,-1.89729855,-9.32537386,9.596818794
12:27.9,1.42E+12,1.239273,-1.9511925,-9.332343,9.614342183,1.23689586,-1.897121918,-9.32432304,9.595724677
12:27.9,1.42E+12,1.1183244,-1.8685642,-9.332792,9.583485178,1.234629572,-1.896762662,-9.32480802,9.595848156
12:27.9,1.42E+12,1.1683204,-1.9046392,-9.31992,9.584024825,1.231435214,-1.896672846,-9.32309858,9.593755732
12:28.0,1.42E+12,1.291664,-1.7829423,-9.27636,9.534051289,1.232324366,-1.896511182,-9.3217903,9.592570098
12:28.0,1.42E+12,1.2048445,-1.7729132,-9.217981,9.463933918,1.23138432,-1.894942444,-9.32075744,9.591144244
12:28.0,1.42E+12,1.2118798,-1.8507514,-9.392219,9.649233707,1.230168846,-1.893912588,-9.32123944,9.591256075
12:28.0,1.42E+12,1.2617263,-1.9606229,-9.260193,9.549197338,1.229716788,-1.893867682,-9.32122447,9.591172086
12:28.0,1.42E+12,1.2064911,-1.9546353,-9.312136,9.591251056,1.229103064,-1.89346951,-9.32234115,9.592095501
12:28.0,1.42E+12,1.3105247,-1.9351758,-9.3486595,9.636379757,1.231650764,-1.894131134,-9.32302074,9.593218246
12:28.0,1.42E+12,1.2225078,-1.9279907,-9.408535,9.681539356,1.231072966,-1.892056448,-9.3247781,9.594423737
12:28.1,1.42E+12,1.25514,-1.821113,-9.235045,9.496203722,1.229761694,-1.887910068,-9.32123944,9.589983078
12:28.1,1.42E+12,1.1567944,-1.8609302,-9.215885,9.472791079,1.228824642,-1.886727528,-9.31814088,9.586620309
12:28.1,1.42E+12,1.1344908,-1.9896625,-9.379944,9.655525655,1.227324762,-1.887736432,-9.31779958,9.586311903
12:28.1,1.42E+12,1.1317964,-1.8474582,-9.315728,9.564353248,1.226959522,-1.888616602,-9.3180241,9.586655183
12:28.1,1.42E+12,1.2281959,-1.9080821,-9.257349,9.531408761,1.2265853,-1.888859096,-9.3149405,9.58365866
12:28.2,1.42E+12,1.201701,-1.9046392,-9.293873,9.562834889,1.225938644,-1.889170446,-9.31147072,9.580264517
12:28.2,1.42E+12,1.2268487,-1.902843,-9.345666,9.615999282,1.224139384,-1.887691522,-9.31111746,9.579386554
12:28.2,1.42E+12,1.2154725,-1.8354831,-9.361084,9.616458041,1.224256144,-1.886068896,-9.31157252,9.579527211
12:28.2,1.42E+12,1.2650194,-1.8808388,-9.191936,9.467286628,1.225456648,-1.884955212,-9.3081237,9.576110199
12:28.3,1.42E+12,1.3419594,-1.9196081,-9.239536,9.531777158,1.227755868,-1.887086778,-9.30759678,9.576326026
12:28.3,1.42E+12,1.2160711,-1.8613793,-9.312734,9.574475253,1.227447508,-1.887910066,-9.30641124,9.575290896
12:28.3,1.42E+12,1.2584331,-1.9576291,-9.276958,9.564408779,1.22906714,-1.888517802,-9.30346834,9.572760215
12:28.3,1.42E+12,1.2407699,-1.9181113,-9.264684,9.542171164,1.229495252,-1.890023672,-9.30204032,9.571723145
12:28.3,1.42E+12,1.2129277,-1.9357746,-9.323662,9.599431754,1.230851432,-1.889571614,-9.30177388,9.571539139
12:28.3,1.42E+12,1.163231,-1.9145187,-9.257199,9.524401374,1.228815664,-1.891751082,-9.29948962,9.56948249
12:28.4,1.42E+12,1.2361294,-1.9312838,-9.342821,9.620092372,1.229785646,-1.893897616,-9.29970816,9.570237234
12:28.4,1.42E+12,1.2593312,-1.8420694,-9.350306,9.612874546,1.231480122,-1.893960484,-9.30154634,9.572253545
12:28.4,1.42E+12,1.255589,-1.923051,-9.326506,9.605120668,1.232557882,-1.895391508,-9.3018637,9.572981857
12:28.4,1.42E+12,1.1593392,-1.9223026,-9.163644,9.43460047,1.228360612,-1.896047144,-9.30050752,9.57123781
12:28.4,1.42E+12,1.2320879,-1.8959574,-9.337732,9.607597721,1.2275014,-1.895157994,-9.30175294,9.57215678
12:28.5,1.42E+12,1.2570859,-1.9490968,-9.207952,9.495558084,1.228863568,-1.897553014,-9.29884298,9.569977129
12:28.5,1.42E+12,1.1508069,-1.8296453,-9.308842,9.556489828,1.22600152,-1.896747688,-9.30090868,9.571461941
12:28.5,1.42E+12,1.1999048,-1.848506,-9.1852,9.44587979,1.22401066,-1.89551126,-9.29757362,9.5677172
12:28.5,1.42E+12,1.1916718,-1.8408719,-9.272767,9.528541277,1.223007744,-1.89464007,-9.29608272,9.565970128
12:28.6,1.42E+12,1.1535013,-1.9440074,-9.1958275,9.469581481,1.220472018,-1.893915576,-9.29346317,9.5629562
12:28.6,1.42E+12,1.2470567,-2.0169058,-9.311088,9.608299494,1.2198074,-1.896478248,-9.29388231,9.563797198
12:28.6,1.42E+12,1.2496015,-1.9121237,-9.27621,9.553313191,1.2202894,-1.895756748,-9.29281053,9.562673471
12:28.6,1.42E+12,1.233435,-1.8776953,-9.2151375,9.48503351,1.218337456,-1.896253714,-9.28855338,9.558372308
12:28.6,1.42E+12,1.1927197,-1.9612216,-9.291029,9.570380887,1.217256702,-1.896942282,-9.28816718,9.55799948
12:28.6,1.42E+12,1.3346246,-1.8474582,-9.366472,9.639767754,1.219157748,-1.897370392,-9.290658,9.560758737
12:28.7,1.42E+12,1.2425661,-1.9151175,-9.199719,9.478738061,1.221433016,-1.896328558,-9.28917308,9.55938792
12:28.7,1.42E+12,1.3340259,-1.853296,-9.230854,9.509100732,1.223349032,-1.896098038,-9.28654454,9.557046619
12:28.7,1.42E+12,1.1490107,-1.959126,-9.260044,9.53450655,1.223396934,-1.897020122,-9.28583502,9.556549855
12:28.7,1.42E+12,1.2476555,-1.8500029,-9.252708,9.517970388,1.223738226,-1.89612199,-9.28407766,9.554709995
12:28.7,1.42E+12,1.2418176,-1.9645147,-9.249865,9.53737026,1.225064468,-1.896556086,-9.28252091,9.553454945
12:28.8,1.42E+12,1.2272978,-1.9318826,-9.242829,9.521991293,1.222373064,-1.89830445,-9.28074859,9.551715064
12:28.8,1.42E+12,1.2082874,-1.9969972,-9.268576,9.55795257,1.222905956,-1.900849158,-9.28220655,9.553715153
12:28.8,1.42E+12,1.2178674,-1.8836828,-9.267827,9.535411853,1.222498802,-1.90179519,-9.28210775,9.553751205
12:28.8,1.42E+12,1.3701009,-1.8901194,-9.29522,9.583884529,1.226079356,-1.90123236,-9.28337411,9.555348497
12:28.8,1.42E+12,1.1951147,-1.8949095,-9.231303,9.499259773,1.225420724,-1.90098687,-9.28245801,9.55432565
12:28.9,1.42E+12,1.2452605,-1.9652632,-9.224567,9.513441517,1.225540474,-1.901268284,-9.28030249,9.552307636
12:28.9,1.42E+12,1.1638298,-1.8769469,-9.279203,9.538398072,1.226450582,-1.901435938,-9.27923071,9.551405894
12:28.9,1.42E+12,1.2231065,-1.8327887,-9.220376,9.480001978,1.227546304,-1.899998928,-9.27723983,9.549325437
12:28.9,1.42E+12,1.2561878,-1.9086809,-9.272018,9.549418221,1.22683678,-1.9025137,-9.27715299,9.549632776
12:28.9,1.42E+12,1.2028985,-1.8209633,-9.273665,9.527000298,1.22679786,-1.903474702,-9.27826667,9.550894103
12:29.0,1.42E+12,1.2557387,-1.9237994,-9.339977,9.618370661,1.227675038,-1.904935662,-9.27722183,9.550276842
12:29.0,1.42E+12,1.1984079,-1.8721569,-9.283395,9.545814563,1.22640867,-1.903166342,-9.27768587,9.550209187
12:29.0,1.42E+12,1.1097922,-1.9246975,-9.3012085,9.562875026,1.224474692,-1.902567586,-9.27746732,9.549641666
12:29.0,1.42E+12,1.1320958,-1.8851798,-9.267677,9.524987179,1.220906114,-1.901567666,-9.27584767,9.547413815
12:29.0,1.42E+12,1.119971,-1.905238,-9.145981,9.409210133,1.218855378,-1.901112612,-9.27059659,9.54196723
12:29.1,1.42E+12,1.1831397,-1.8354831,-9.2118435,9.467147323,1.217415372,-1.901400014,-9.27013256,9.541386102
12:29.1,1.42E+12,1.2519965,-1.9603235,-9.27636,9.563535869,1.219319414,-1.90338788,-9.27134206,9.543200998
12:29.1,1.42E+12,1.2684622,-1.83698,-9.31947,9.583110818,1.221998842,-1.90033423,-9.27013258,9.541752701
12:29.1,1.42E+12,1.2470567,-1.959575,-9.267977,9.554605291,1.224304048,-1.902576566,-9.26917756,9.541557742
12:29.1,1.42E+12,1.3211527,-1.9570303,-9.312584,9.60726979,1.226163184,-1.90355553,-9.27028226,9.543074963
12:29.2,1.42E+12,1.300795,-1.839375,-9.30974,9.578445954,1.228145064,-1.902250246,-9.2705996,9.543387184
12:29.2,1.42E+12,1.2663666,-1.9860699,-9.3244095,9.617316182,1.228935422,-1.903914784,-9.27017447,9.543413522
12:29.2,1.42E+12,1.198857,-1.9001486,-9.335037,9.601600835,1.228603112,-1.905208094,-9.26965353,9.543116378
12:29.3,1.42E+12,1.1672727,-1.8844314,-9.237142,9.499389432,1.226648178,-1.905279946,-9.27055765,9.543758434
12:29.3,1.42E+12,1.1900253,-1.8788928,-9.245823,9.509555264,1.223609496,-1.90446564,-9.27068339,9.543313996
12:29.3,1.42E+12,1.1521541,-1.781146,-9.296568,9.535518692,1.222331156,-1.902860974,-9.27036007,9.542534865
12:29.3,1.42E+12,1.2686119,-1.791774,-9.3012085,9.556793907,1.222534732,-1.899543872,-9.27084508,9.542382568
12:29.3,1.42E+12,1.0907817,-1.9181113,-9.299711,9.557906693,1.219534968,-1.899543872,-9.27154562,9.542697278
12:29.3,1.42E+12,1.1946657,-1.8529967,-9.343121,9.599725669,1.219169728,-1.897888314,-9.2719348,9.542703156
12:29.3,1.42E+12,1.241668,-1.7931212,-9.275761,9.528733661,1.220738468,-1.895460364,-9.27230604,9.542789802
12:29.4,1.42E+12,1.1870315,-1.7792001,-9.331146,9.573133366,1.21975651,-1.89241869,-9.27207254,9.541850622
12:29.4,1.42E+12,1.1852353,-1.9161654,-9.369316,9.636418155,1.218274592,-1.89390061,-9.27245274,9.542321494
12:29.4,1.42E+12,1.2115805,-1.866768,-9.231603,9.49606466,1.217394422,-1.89277495,-9.27055468,9.540140374
12:29.4,1.42E+12,1.1801459,-1.7977616,-9.262289,9.508663872,1.217810556,-1.89028413,-9.27252758,9.541621642
12:29.4,1.42E+12,1.1927197,-1.905238,-9.226812,9.496661087,1.217023192,-1.890469742,-9.27030918,9.539402909
12:29.5,1.42E+12,1.2593312,-1.8398241,-9.409583,9.670114789,1.217068098,-1.888284288,-9.2743418,9.542894044
12:29.5,1.42E+12,1.2567865,-1.8440154,-9.362281,9.62456288,1.21918769,-1.88857169,-9.27541058,9.544255505
12:29.5,1.42E+12,1.2970527,-1.8062938,-9.309291,9.571203786,1.221130648,-1.887727446,-9.2778924,9.546761985
12:29.5,1.42E+12,1.2042458,-1.9609222,-9.337433,9.616812302,1.221382128,-1.890128452,-9.27918572,9.548527405
12:29.6,1.42E+12,1.0996133,-1.87066,-9.2747135,9.525168174,1.220304368,-1.888661504,-9.28076344,9.549639139
12:29.6,1.42E+12,1.2467574,-1.8284477,-9.316028,9.575280816,1.220298382,-1.884892342,-9.28086224,9.548978765
12:29.6,1.42E+12,1.2756473,-1.850901,-9.270672,9.539311814,1.220819298,-1.883667888,-9.28075148,9.548698738
12:29.6,1.42E+12,1.1681708,-1.8262024,-9.193132,9.445279995,1.219514014,-1.88263803,-9.28031137,9.547903667
12:29.6,1.42E+12,1.232986,-1.8362316,-9.278007,9.537998472,1.22031934,-1.88013823,-9.28005093,9.547256019
12:29.6,1.42E+12,1.1698173,-1.8272502,-9.31468,9.564025267,1.217023194,-1.87973407,-9.27901509,9.545741169
12:29.7,1.42E+12,1.2178674,-1.9248472,-9.3613825,9.634506737,1.21652922,-1.879928664,-9.28224836,9.548856543
12:29.7,1.42E+12,1.2855268,-1.9242485,-9.359886,9.641720665,1.215559238,-1.881347714,-9.284829,9.551508942
12:29.7,1.42E+12,1.2317885,-1.8540444,-9.317973,9.580156803,1.217214794,-1.879246082,-9.28598758,9.552421947
12:29.7,1.42E+12,1.2207115,-1.9483484,-9.275761,9.556460651,1.216675914,-1.881212992,-9.28644864,9.553191752
12:29.7,1.42E+12,1.3120216,-1.8030007,-9.330098,9.592858849,1.218079994,-1.877982712,-9.2880533,9.554301524
12:29.8,1.42E+12,1.3033397,-1.8500029,-9.289832,9.561494846,1.219600832,-1.876345118,-9.28899336,9.555091595
12:29.8,1.42E+12,1.23104,-1.8155745,-9.269025,9.525050903,1.220055884,-1.872716664,-9.28900234,9.554433561
12:29.8,1.42E+12,1.242117,-1.8875748,-9.243877,9.516041995,1.220540876,-1.872794504,-9.28852334,9.554046164
12:29.8,1.42E+12,1.2325369,-1.9360739,-9.373957,9.650834119,1.217789596,-1.873713594,-9.29009808,9.555385156
12:29.8,1.42E+12,1.2981006,-1.8193167,-9.309141,9.573666204,1.219849314,-1.872201738,-9.29165484,9.556873285
12:29.9,1.42E+12,1.3323793,-1.9261944,-9.31962,9.609410825,1.22159169,-1.871420362,-9.2935559,9.558792671
12:29.9,1.42E+12,1.2795392,-1.7835411,-9.27621,9.532382251,1.223905878,-1.869552246,-9.29349604,9.558672354
12:29.9,1.42E+12,1.2689112,-1.8829345,-9.297017,9.570271839,1.224821972,-1.870555162,-9.29502886,9.560477752
12:29.9,1.42E+12,1.1279045,-1.9284397,-9.263487,9.529073388,1.222256306,-1.870950338,-9.29485824,9.560070855
12:29.9,1.42E+12,1.2163706,-1.920656,-9.409733,9.680472718,1.222525748,-1.872944192,-9.2975796,9.563140303
12:30.0,1.42E+12,1.2316388,-1.889371,-9.373957,9.641458746,1.22204375,-1.872255624,-9.2982592,9.563602065
12:30.0,1.42E+12,1.2410692,-1.9335293,-9.239985,9.521350278,1.222896976,-1.873483072,-9.297391,9.563112779
12:30.0,1.42E+12,1.3365706,-1.9025437,-9.281449,9.568249006,1.227432544,-1.873039996,-9.29699581,9.563220259
12:30.0,1.42E+12,1.217119,-1.8414706,-9.370214,9.626697411,1.229133008,-1.872165812,-9.29904655,9.565254464
12:30.0,1.42E+12,1.2120296,-1.8724562,-9.381291,9.642807102,1.23097418,-1.871510176,-9.30375275,9.569926403
12:30.1,1.42E+12,1.2022998,-1.8321899,-9.457483,9.708060019,1.231357382,-1.871444312,-9.30866554,9.574744657
12:30.1,1.42E+12,1.2133768,-1.8030007,-9.341475,9.590946249,1.230584988,-1.868297856,-9.30996784,9.575292865
12:30.1,1.42E+12,1.1966116,-1.8684146,-9.389375,9.64796431,1.229147976,-1.868926548,-9.31136594,9.576589934
12:30.1,1.42E+12,1.1704161,-1.8137783,-9.267079,9.515167826,1.227615164,-1.866010614,-9.31134798,9.575801185
12:30.1,1.42E+12,1.1282039,-1.8431172,-9.227411,9.477079657,1.223756188,-1.863732352,-9.30964452,9.573197382
12:30.2,1.42E+12,1.3034893,-1.9088305,-9.275311,9.558980719,1.223810074,-1.865121462,-9.30895594,9.572808078
12:30.2,1.42E+12,1.2669654,-1.8914666,-9.38683,9.658955672,1.22382205,-1.863229396,-9.31020435,9.573640868
12:30.2,1.42E+12,1.2275972,-1.8760487,-9.305998,9.572259524,1.224396854,-1.862747398,-9.30962357,9.573054041
12:30.2,1.42E+12,1.2519965,-1.8702109,-9.2907295,9.559437153,1.22609133,-1.862462988,-9.31069532,9.574254996
12:30.3,1.42E+12,1.307531,-1.7661772,-9.295969,9.552175609,1.228441444,-1.860208676,-9.31169824,9.575107403
12:30.3,1.42E+12,1.2266991,-1.9077828,-9.4684105,9.736283854,1.229932344,-1.862741412,-9.31513509,9.579122706
12:30.3,1.42E+12,1.352737,-1.9223026,-9.3541975,9.645006768,1.231614846,-1.865351984,-9.31619487,9.580886963
12:30.3,1.42E+12,1.1418256,-1.8407222,-9.352252,9.599825071,1.232635724,-1.863804202,-9.31724569,9.581725331
12:30.3,1.42E+12,1.2407699,-1.9586769,-9.269923,9.555490441,1.233557808,-1.865917806,-9.31578173,9.580840626
12:30.3,1.42E+12,1.25993,-1.9709514,-9.267379,9.558053492,1.233923048,-1.86947441,-9.31561409,9.581427023
12:30.4,1.42E+12,1.307531,-1.9673588,-9.281749,9.577630316,1.236333038,-1.873237584,-9.31462615,9.581516962
12:30.4,1.42E+12,1.2160711,-1.9284397,-9.407487,9.679799598,1.236949754,-1.87348307,-9.31538957,9.582384591
12:30.4,1.42E+12,1.1585907,-1.8967057,-9.289233,9.551422651,1.235889958,-1.874081824,-9.31654217,9.58349175
12:30.4,1.42E+12,1.267564,-1.9407142,-9.3365345,9.619977472,1.23763832,-1.876940876,-9.31802708,9.585718022
12:30.4,1.42E+12,1.2982503,-1.9830762,-9.2521105,9.550894919,1.239748932,-1.87849764,-9.31853305,9.586802699
12:30.5,1.42E+12,1.2265494,-1.9646645,-9.210048,9.496805473,1.239093296,-1.880994448,-9.31454235,9.583336513
12:30.5,1.42E+12,1.2862751,-1.8803897,-9.2134905,9.490983945,1.239683068,-1.881721934,-9.31156654,9.580664934
12:30.5,1.42E+12,1.251248,-1.9182609,-9.335486,9.612317374,1.238766974,-1.883961276,-9.31209044,9.581487206
12:30.5,1.42E+12,1.2636722,-1.8606308,-9.251661,9.521136784,1.239955502,-1.881955448,-9.310375,9.579573695
12:30.5,1.42E+12,1.296454,-1.791774,-9.306148,9.565335208,1.243892316,-1.880377728,-9.31100369,9.580377036
12:30.6,1.42E+12,1.201252,-1.9127225,-9.349109,9.618074278,1.242982208,-1.882063224,-9.31166531,9.581232905
12:30.6,1.42E+12,1.2915143,-1.8965561,-9.23295,9.513795243,1.243299548,-1.882976326,-9.31091087,9.580722574
12:30.6,1.42E+12,1.3352234,-1.9917581,-9.296418,9.600693177,1.2466406,-1.88628744,-9.31297659,9.583830838
12:30.6,1.42E+12,1.2958553,-1.823059,-9.198522,9.466551223,1.247897986,-1.886023988,-9.31138689,9.582401893
12:30.6,1.42E+12,1.131048,-1.8911673,-9.372459,9.6280201,1.2471226,-1.88730233,-9.31254247,9.583681789
12:30.7,1.42E+12,1.1934682,-1.8365309,-9.219777,9.476365338,1.246634616,-1.885536004,-9.30971036,9.580518961
12:30.7,1.42E+12,1.1445199,-1.9766395,-9.280551,9.557492159,1.243814478,-1.886583824,-9.30812366,9.578834391
12:30.7,1.42E+12,1.281036,-1.9255958,-9.307795,9.590830005,1.244799428,-1.888014852,-9.3079201,9.579047855
12:30.7,1.42E+12,1.1982582,-1.8488054,-9.376053,9.631421182,1.244350362,-1.886023992,-9.30992594,9.580547066
12:30.7,1.42E+12,1.228645,-1.8562899,-9.262139,9.525891013,1.24268283,-1.887089776,-9.30856676,9.579207709
12:30.8,1.42E+12,1.133443,-1.8999989,-9.2151375,9.476995726,1.239284896,-1.888089696,-9.30707287,9.577517727
12:30.8,1.42E+12,1.2202624,-1.9576291,-9.22307,9.507174777,1.239069344,-1.890930788,-9.30615377,9.577160204
12:30.8,1.42E+12,1.163231,-1.9338286,-9.369765,9.637701778,1.237491624,-1.891855864,-9.30867153,9.5795934
12:30.9,1.42E+12,1.2576846,-1.8486557,-9.322165,9.586556146,1.237994578,-1.8901075,-9.30763569,9.57830784
12:30.9,1.42E+12,1.2136761,-1.8678159,-9.274115,9.537869518,1.236306088,-1.891077484,-9.30693517,9.577591907
12:30.9,1.42E+12,1.2573853,-1.821562,-9.29537,9.555260821,1.234806208,-1.888984836,-9.30645017,9.576508907
12:30.9,1.42E+12,1.1996055,-1.7142352,-9.300011,9.532463495,1.233207534,-1.887598718,-9.30692619,9.576510531
12:30.9,1.42E+12,1.3148657,-1.8279986,-9.187445,9.459365535,1.234126624,-1.8865,-9.30473475,9.574292405
12:30.9,1.42E+12,1.4085709,-1.8236576,-9.2730665,9.555080394,1.239739952,-1.884404358,-9.30492634,9.574812545
12:30.9,1.42E+12,1.3114228,-1.843267,-9.32905,9.599408153,1.241640996,-1.882856578,-9.30331268,9.573191254
12:31.0,1.42E+12,1.2192147,-1.8694625,-9.304352,9.568298734,1.241392514,-1.882458408,-9.30192058,9.571728054
12:31.0,1.42E+12,1.1124866,-1.8839822,-9.398506,9.649815045,1.238820862,-1.881467466,-9.305091,9.574297349
12:31.0,1.42E+12,1.1780503,-1.8553917,-9.353748,9.608479719,1.235650456,-1.880524426,-9.30653698,9.575101964
12:31.0,1.42E+12,1.2645704,-1.9013461,-9.379645,9.653600137,1.236599484,-1.881721936,-9.3067256,9.575640018
12:31.0,1.42E+12,1.3431569,-1.9646645,-9.371113,9.668595343,1.23922203,-1.883566102,-9.30652204,9.576155783
12:31.1,1.42E+12,1.3458513,-1.832639,-9.403146,9.674142656,1.24209306,-1.883575084,-9.3054353,9.575477436
12:31.1,1.42E+12,1.2141252,-1.8693128,-9.334739,9.597175759,1.242108028,-1.884901326,-9.30530058,9.575602026
12:31.1,1.42E+12,1.25993,-2.0110679,-9.216185,9.51682109,1.243374396,-1.887754392,-9.30183678,9.572979161
12:31.1,1.42E+12,1.2374767,-1.8275496,-9.371861,9.628243076,1.244715608,-1.888029818,-9.30393242,9.575240666
12:31.1,1.42E+12,1.2271482,-1.8534458,-9.433982,9.692325336,1.246694494,-1.88823639,-9.30806384,9.57954558
12:31.2,1.42E+12,1.2225078,-1.780697,-9.333092,9.579771052,1.245074864,-1.88567372,-9.30921946,9.579961387
12:31.2,1.42E+12,1.1955638,-1.8121316,-9.224418,9.476448764,1.243646832,-1.88408702,-9.30597122,9.576311248
12:31.2,1.42E+12,1.219065,-1.8241067,-9.272468,9.528491357,1.243476188,-1.88304818,-9.30530062,9.575435885
12:31.2,1.42E+12,1.1150312,-1.8929635,-9.293574,9.549718482,1.240736882,-1.883503232,-9.30535751,9.575241512
12:31.2,1.42E+12,1.2624747,-1.8714083,-9.303453,9.573413661,1.239835756,-1.885607854,-9.30550719,9.575666273
12:31.3,1.42E+12,1.2099339,-1.9690055,-9.220975,9.506171819,1.239500452,-1.886832308,-9.30055848,9.571064032
12:31.3,1.42E+12,1.2165202,-1.9691551,-9.330847,9.613646496,1.236776116,-1.887769358,-9.30009147,9.570436827
12:31.3,1.42E+12,1.280587,-1.8166223,-9.316626,9.57807599,1.239551344,-1.88728736,-9.29937895,9.570001845
12:31.3,1.42E+12,1.2394226,-1.9046392,-9.170829,9.448170374,1.239524398,-1.886206606,-9.29739707,9.567855444
12:31.3,1.42E+12,1.3895603,-1.955234,-9.3012085,9.605534727,1.242117004,-1.885892258,-9.29807366,9.568805068
12:31.4,1.42E+12,1.217119,-1.9354751,-9.33384,9.609787285,1.240308764,-1.885254584,-9.29911548,9.569448208
12:31.4,1.42E+12,1.269061,-2.045197,-9.21364,9.522841416,1.241368562,-1.88758973,-9.29523854,9.566309044
12:31.4,1.42E+12,1.3256433,-1.9323317,-9.258697,9.550639041,1.244709614,-1.88830225,-9.29462782,9.566293372
12:31.4,1.42E+12,1.2367282,-1.8091378,-9.317823,9.572058383,1.244092898,-1.885670722,-9.29425359,9.56533499
12:31.4,1.42E+12,1.3027409,-1.956731,-9.242979,9.537221338,1.24418271,-1.885143818,-9.29407096,9.565061519
12:31.5,1.42E+12,1.1261083,-1.9092796,-9.32426,9.584116706,1.242173888,-1.88403612,-9.2963552,9.566807743
12:31.5,1.42E+12,1.2391232,-1.8787432,-9.362431,9.629133738,1.24123085,-1.88400319,-9.29933401,9.569570739
12:31.6,1.42E+12,1.2621753,-1.7842896,-9.378597,9.629893953,1.241449396,-1.881323764,-9.30019623,9.569922271
12:31.6,1.42E+12,1.2096345,-1.9431093,-9.392368,9.667236731,1.240368642,-1.882973334,-9.30301037,9.57284427
12:31.6,1.42E+12,1.1976595,-1.832639,-9.279503,9.534260848,1.238392752,-1.883790634,-9.30247747,9.572222782
12:31.6,1.42E+12,1.1587404,-1.8311421,-9.33399,9.582229909,1.23754252,-1.882159026,-9.30217509,9.571505895
12:31.6,1.42E+12,1.167123,-1.8655705,-9.400452,9.654585812,1.235054694,-1.881539314,-9.30552513,9.574321706
12:31.6,1.42E+12,1.2413685,-1.8703606,-9.329948,9.59620624,1.233177596,-1.879111364,-9.30619573,9.574231968
12:31.6,1.42E+12,1.1991563,-1.9594253,-9.257948,9.538706648,1.231243616,-1.88183869,-9.30738425,9.575675076
12:31.6,1.42E+12,1.1976595,-1.9776874,-9.234746,9.519777803,1.232575846,-1.883569092,-9.30462999,9.57351023
12:31.7,1.42E+12,1.1421249,-1.8077906,-9.366622,9.607609684,1.23154898,-1.882994286,-9.30756689,9.576135117
12:31.7,1.42E+12,1.2103829,-1.8321899,-9.342971,9.597554569,1.23286624,-1.880105294,-9.30881529,9.576936365
12:31.7,1.42E+12,1.2168196,-1.7904267,-9.336085,9.583775917,1.231581912,-1.877401912,-9.30938109,9.576795284
12:31.7,1.42E+12,1.2302916,-1.8233583,-9.313183,9.569411189,1.23222258,-1.87689297,-9.30812369,9.575555084
12:31.7,1.42E+12,1.3016931,-1.8284477,-9.307345,9.574147318,1.233683542,-1.876336126,-9.30902781,9.57652021
12:31.8,1.42E+12,1.1575428,-1.8055453,-9.303903,9.547906064,1.234165538,-1.874447054,-9.31080312,9.577938417
12:31.8,1.42E+12,1.2063414,-1.7998571,-9.397758,9.644304049,1.233887118,-1.871291614,-9.31429688,9.580681002
12:31.8,1.42E+12,1.1850857,-1.9044896,-9.245823,9.514029204,1.234324212,-1.870704834,-9.31181804,9.57820755
12:31.9,1.42E+12,1.3163626,-1.924997,-9.41587,9.700362457,1.235497772,-1.87223166,-9.31369214,9.580483677
12:31.9,1.42E+12,1.2665162,-1.8092875,-9.233549,9.493998719,1.236554574,-1.871061092,-9.31288082,9.579606261
12:31.9,1.42E+12,1.1247611,-1.88024,-9.354347,9.607507366,1.23390209,-1.872234652,-9.31406036,9.580651192
12:31.9,1.42E+12,1.1286529,-1.8327887,-9.341025,9.585808252,1.232483038,-1.874605722,-9.31488064,9.581718087
12:31.9,1.42E+12,1.181044,-1.8006057,-9.299711,9.545767151,1.229806604,-1.874057864,-9.31712596,9.583446119
12:31.9,1.42E+12,1.1581416,-1.997147,-9.365125,9.645488809,1.224798018,-1.877527652,-9.31896713,9.585254287
12:31.9,1.42E+12,1.2659175,-1.8919158,-9.285341,9.560305957,1.223887912,-1.878500628,-9.31809295,9.584472243
12:32.0,1.42E+12,1.1991563,-1.8871257,-9.370364,9.633428296,1.223486744,-1.878853892,-9.31941319,9.585774835
12:32.0,1.42E+12,1.2799883,-1.9470012,-9.42081,9.704681591,1.226836778,-1.880114272,-9.31985927,9.586872166
12:32.0,1.42E+12,1.1816428,-1.8974543,-9.356743,9.620044288,1.226908628,-1.880955524,-9.31991917,9.587103457
12:32.0,1.42E+12,1.2584331,-1.8862276,-9.308693,9.580880638,1.226785882,-1.880653154,-9.31850013,9.585649067
12:32.0,1.42E+12,1.2672647,-1.8586849,-9.287287,9.555855231,1.225268038,-1.878533562,-9.31682361,9.583394265
12:32.1,1.42E+12,1.2022998,-1.843267,-9.384734,9.639314825,1.222397008,-1.878746122,-9.31645537,9.582697708
12:32.1,1.42E+12,1.1617341,-1.8898201,-9.275761,9.537336539,1.221349186,-1.879156268,-9.31527581,9.581500924
12:32.1,1.42E+12,1.1961626,-1.8628762,-9.157806,9.421598773,1.220073838,-1.876192434,-9.31410823,9.579596477
12:32.1,1.42E+12,1.189726,-1.8452128,-9.191486,9.45006207,1.219118824,-1.876545698,-9.31050073,9.576032857
12:32.3,1.42E+12,1.1220666,-1.8859282,-9.408834,9.661362009,1.217017192,-1.877195346,-9.30999777,9.575413591
12:32.3,1.42E+12,1.1633807,-1.9199076,-9.494905,9.756675705,1.21583465,-1.879979558,-9.31323403,9.578951684
12:32.3,1.42E+12,1.187331,-1.9935544,-9.236992,9.523971612,1.215669994,-1.883608014,-9.31348551,9.579902141
12:32.3,1.42E+12,1.2497511,-1.9203566,-9.241781,9.521563072,1.216283716,-1.885533012,-9.31287177,9.579763575
12:32.3,1.42E+12,1.169518,-1.7910255,-9.331295,9.573328108,1.217373452,-1.883494252,-9.31362619,9.580235768
12:32.3,1.42E+12,1.0913805,-1.8190173,-9.3558445,9.593318594,1.213951568,-1.882446432,-9.31467402,9.580633866
12:32.3,1.42E+12,1.0172845,-2.0070264,-9.327553,9.595116867,1.21009858,-1.88320685,-9.31680558,9.582412767
12:32.3,1.42E+12,1.035846,-1.9386187,-9.340426,9.595560289,1.206485096,-1.882596122,-9.31699716,9.582051043
12:32.3,1.42E+12,0.9966275,-1.8943107,-9.378897,9.620051369,1.200805906,-1.88414989,-9.31824258,9.582890551
12:32.3,1.42E+12,1.0216255,-1.904789,-9.450598,9.694624405,1.196449964,-1.884152886,-9.32383796,9.587819631
12:32.3,1.42E+12,1.0162368,-1.9038908,-9.272767,9.520595845,1.188983494,-1.883126022,-9.32326913,9.586120854
12:32.4,1.42E+12,1.0577005,-1.9401155,-9.357491,9.614853941,1.185795124,-1.88321883,-9.32374215,9.586222187
12:32.4,1.42E+12,1.0822494,-1.8899698,-9.470506,9.717702069,1.182058892,-1.880114286,-9.32887947,9.5901194
12:32.4,1.42E+12,1.0976673,-1.8947598,-9.40135,9.652997981,1.177499372,-1.879362848,-9.33173253,9.592166579
12:32.4,1.42E+12,1.1220666,-1.83698,-9.349708,9.594298758,1.17520614,-1.879919692,-9.33237023,9.592611386
12:32.4,1.42E+12,1.2269984,-2.0806732,-9.230704,9.541520968,1.17369129,-1.882398536,-9.33212473,9.592697379
12:32.5,1.42E+12,1.1575428,-1.8979033,-9.280701,9.543235998,1.17431998,-1.88217101,-9.33125355,9.591879765
12:32.5,1.42E+12,1.2126284,-1.785038,-9.276509,9.524203249,1.173790084,-1.880296906,-9.32953511,9.589781155
12:32.5,1.42E+12,1.3039384,-1.8363812,-9.320967,9.589211494,1.174625346,-1.881338738,-9.32838251,9.588967506
12:32.6,1.42E+12,1.2570859,-1.801354,-9.428294,9.680798983,1.175574374,-1.878503632,-9.32910103,9.589238751
12:32.6,1.42E+12,1.2702584,-1.7558486,-9.33384,9.582125539,1.177026352,-1.876967824,-9.33018777,9.590196044
12:32.6,1.42E+12,1.2144246,-1.771566,-9.429042,9.670579416,1.178140036,-1.875776302,-9.33208881,9.591963035
12:32.6,1.42E+12,1.3292358,-1.9044896,-9.400452,9.683101066,1.181382292,-1.876554684,-9.33208881,9.59253334
12:32.6,1.42E+12,1.4078224,-1.8892213,-9.425599,9.715607935,1.18471137,-1.876931898,-9.33400183,9.594921374
12:32.6,1.42E+12,1.2951068,-1.9324814,-9.4667635,9.748404852,1.18663038,-1.87639302,-9.33817814,9.599115338
12:32.6,1.42E+12,1.201701,-1.883084,-9.449699,9.710144275,1.18671121,-1.874500952,-9.3424772,9.602922667
12:32.7,1.42E+12,1.2840298,-1.7606387,-9.4049425,9.65409367,1.189549308,-1.873557914,-9.34324361,9.603852347
12:32.7,1.42E+12,1.237776,-1.8785934,-9.475446,9.738854116,1.19009717,-1.874485984,-9.34589311,9.606678338
12:32.7,1.42E+12,1.3519886,-1.8519489,-9.398506,9.674166782,1.19280055,-1.875716428,-9.34714153,9.608486155
12:32.7,1.42E+12,1.4350657,-1.7036073,-9.32411,9.586486253,1.196896032,-1.873321408,-9.34736007,9.608827656
12:32.7,1.42E+12,1.3611195,-1.7601897,-9.411079,9.670538869,1.19808456,-1.871956248,-9.34943475,9.610755487
12:32.8,1.42E+12,1.3630655,-1.8425184,-9.268426,9.547593526,1.202195014,-1.87269571,-9.34872521,9.610749237
12:32.8,1.42E+12,1.2454102,-1.9320323,-9.166339,9.450162223,1.20297639,-1.875339214,-9.34409683,9.6068664
12:32.8,1.42E+12,1.3983921,-1.8631755,-9.336684,9.622920114,1.207242518,-1.874512932,-9.34591405,9.609044218
12:32.8,1.42E+12,1.2894187,-1.936523,-9.352551,9.637579163,1.20670364,-1.874743452,-9.34464767,9.607788552
12:32.8,1.42E+12,1.2192147,-1.8335371,-9.411229,9.665380182,1.20575761,-1.875228444,-9.34820127,9.611216182
12:32.9,1.42E+12,1.2069402,-1.658551,-9.373807,9.595611171,1.207401192,-1.870794664,-9.34859047,9.610978258
12:32.9,1.42E+12,1.1793975,-1.7227675,-9.471404,9.698783432,1.208416084,-1.86859424,-9.35119805,9.613237761
12:32.9,1.42E+12,1.2335848,-1.7964144,-9.31483,9.566341729,1.2094669,-1.868510414,-9.35150043,9.613649253
12:32.9,1.42E+12,1.250799,-1.7952168,-9.168734,9.426186114,1.211320048,-1.86447181,-9.34757261,9.609263199
12:32.9,1.42E+12,1.3328284,-1.6531622,-9.251661,9.49223936,1.212658266,-1.859696738,-9.34689901,9.607901867
12:33.0,1.42E+12,1.4714401,-1.5928377,-9.412277,9.658841868,1.218103942,-1.853810978,-9.34773727,9.608410139
12:33.0,1.42E+12,1.5139518,-1.8276993,-9.579928,9.869526598,1.222783212,-1.85142494,-9.35091963,9.611707039
12:33.0,1.42E+12,1.5383509,-1.7796493,-9.541458,9.827161131,1.229917374,-1.84906884,-9.35461393,9.615849376
12:33.0,1.42E+12,1.607058,-1.8782941,-9.426947,9.745663337,1.236889872,-1.84891017,-9.35697901,9.61914503
12:33.0,1.42E+12,1.629212,-1.7055533,-9.265432,9.560934784,1.244128818,-1.845847538,-9.35654191,9.619246621
12:33.1,1.42E+12,1.6232245,-1.7661772,-9.368119,9.67036159,1.252547312,-1.844305742,-9.35620961,9.619867556
12:33.1,1.42E+12,1.5793657,-1.8260527,-9.274863,9.583942203,1.260899944,-1.843030394,-9.35619165,9.620799669
12:33.1,1.42E+12,1.7149837,-2.0511847,-9.163494,9.545582751,1.271276366,-1.846796564,-9.35630541,9.623279349
12:33.1,1.42E+12,1.3326787,-1.7131875,-9.266181,9.516992921,1.27413542,-1.844156058,-9.35779931,9.624617966
12:33.2,1.42E+12,1.1692185,-1.9053878,-9.632319,9.888333727,1.275078458,-1.84454525,-9.36226901,9.6291574
12:33.2,1.42E+12,1.3172607,-1.6161891,-9.727073,9.948024533,1.278156058,-1.83847088,-9.36691237,9.632984377
12:33.2,1.42E+12,1.5307169,-1.7274078,-9.604627,9.878051009,1.285023776,-1.833147948,-9.37426507,9.640065965
12:33.2,1.42E+12,1.603765,-1.5688875,-9.291179,9.558215177,1.292104054,-1.826118566,-9.37525303,9.640799007
12:33.2,1.42E+12,1.5257771,-1.56769,-9.1307125,9.389119152,1.299229236,-1.821651856,-9.37124138,9.637114828
12:33.2,1.42E+12,1.5896943,-1.463806,-9.375903,9.621715701,1.309195512,-1.81454763,-9.37164255,9.63768277
12:33.3,1.42E+12,1.5702347,-1.5934365,-9.469907,9.730560903,1.320254516,-1.806275832,-9.37448963,9.64039165
12:33.3,1.42E+12,1.7378861,-1.4482384,-9.535022,9.799708521,1.334295318,-1.796468226,-9.37838155,9.644474615
12:33.3,1.42E+12,1.8649718,-1.5459851,-9.459279,9.764535265,1.351662204,-1.789501714,-9.37998919,9.647364293
12:33.3,1.42E+12,1.9239491,-1.7112415,-9.236543,9.588725369,1.369708676,-1.785630764,-9.37570809,9.645246312
12:33.3,1.42E+12,1.8676661,-1.5958314,-9.182355,9.50528789,1.386737262,-1.779469576,-9.37389985,9.644940153
12:33.4,1.42E+12,1.7515078,-1.627266,-9.156159,9.463140168,1.400613408,-1.773212586,-9.36987321,9.641905878
12:33.4,1.42E+12,1.61095,-1.7600399,-9.377399,9.676182737,1.41118742,-1.770613988,-9.36801107,9.641075491
12:33.4,1.42E+12,1.3314812,-1.6597486,-9.302405,9.542659293,1.415863698,-1.765913764,-9.36603217,9.638868717
12:33.4,1.42E+12,1.4063256,-1.7175283,-9.370214,9.629567257,1.421548878,-1.76352473,-9.36644229,9.639574087
12:33.5,1.42E+12,1.3468992,-1.7280066,-9.362131,9.615073641,1.423946894,-1.756471398,-9.36907083,9.641045141
12:33.5,1.42E+12,1.2525952,-1.746568,-9.410331,9.652658911,1.425847942,-1.753444692,-9.37166343,9.643233599
12:33.5,1.42E+12,1.162782,-1.95239,-9.312734,9.585974298,1.424851014,-1.756791732,-9.37238793,9.64446902
12:33.5,1.42E+12,1.3093272,-1.8494041,-9.474248,9.741458228,1.42495879,-1.75705219,-9.37545355,9.647513955
12:33.5,1.42E+12,1.2540921,-1.9923569,-9.556577,9.842276006,1.424898914,-1.760872248,-9.37801921,9.650743495
12:33.5,1.42E+12,1.3543836,-1.9122734,-9.589957,9.872103107,1.426581418,-1.764000744,-9.38314155,9.656543046
12:33.6,1.42E+12,1.3711487,-1.963018,-9.541608,9.837467746,1.4297159,-1.767829784,-9.38539287,9.659880813
12:33.6,1.42E+12,1.5462844,-1.898951,-9.380243,9.694636099,1.434056872,-1.767719012,-9.38498869,9.660111514
12:33.6,1.42E+12,1.775907,-1.7435743,-9.488468,9.809430259,1.441418564,-1.764806072,-9.38624607,9.66198796
12:33.6,1.42E+12,1.6024177,-1.9172131,-9.394764,9.721370231,1.447564782,-1.764500706,-9.38480608,9.661447268
12:33.6,1.42E+12,1.6247214,-1.8282981,-9.323811,9.639286547,1.45602519,-1.763404988,-9.38228832,9.660030113
12:33.7,1.42E+12,1.273402,-1.8911673,-9.190738,9.469304694,1.455812634,-1.76601556,-9.37800423,9.656334334
12:33.7,1.42E+12,0.9063652,-1.8793418,-9.39656,9.62542276,1.449184418,-1.766030528,-9.37642651,9.654065707
12:33.7,1.42E+12,0.78347075,-1.88024,-9.528436,9.743727289,1.437814061,-1.76659635,-9.37902511,9.655456917
12:33.7,1.42E+12,0.84634,-1.8390756,-9.385483,9.601342698,1.426039547,-1.769305716,-9.38025257,9.655754046
12:33.7,1.42E+12,0.7056326,-1.6956738,-9.336085,9.515025493,1.412929809,-1.768015398,-9.37875269,9.652643778
12:33.8,1.42E+12,0.8611592,-1.771117,-9.4253,9.628848876,1.402891683,-1.76658737,-9.38189017,9.654268885
12:33.8,1.42E+12,1.0883867,-1.8321899,-9.567803,9.802262988,1.399751213,-1.764590522,-9.38991945,9.6613109
12:33.8,1.42E+12,1.1258088,-1.8661693,-9.480984,9.728262482,1.394299547,-1.764650398,-9.39280545,9.663417748
12:33.9,1.42E+12,1.3620176,-1.9335293,-9.718989,10.00261839,1.395751525,-1.764590524,-9.40013421,9.670718532
12:33.9,1.42E+12,1.2482543,-1.7929715,-9.675729,9.919305282,1.396332317,-1.763779212,-9.40542421,9.675797034
12:33.9,1.42E+12,1.2424164,-1.8764977,-9.36767,9.634214206,1.397041841,-1.768138146,-9.40530147,9.676569095
12:33.9,1.42E+12,1.5290703,-1.9914588,-9.239387,9.574457492,1.404035297,-1.773511972,-9.40066113,9.674082576
12:33.9,1.42E+12,1.4859599,-1.9898121,-9.1941805,9.523674925,1.409082799,-1.777379926,-9.39824814,9.67322924
12:33.9,1.42E+12,1.470991,-1.9464024,-9.23774,9.554482567,1.413486639,-1.780403638,-9.39962826,9.675795169
12:33.9,1.42E+12,1.5941849,-2.08696,-9.397308,9.757367738,1.418713769,-1.789079594,-9.4025412,9.681097737
12:34.0,1.42E+12,1.7205222,-2.0767813,-9.372459,9.752753709,1.423695411,-1.798758466,-9.40174484,9.682975974
12:34.0,1.42E+12,1.7027092,-1.9318826,-9.418564,9.76425813,1.427470559,-1.800842132,-9.39851756,9.680870604
12:34.0,1.42E+12,1.6765137,-2.0606148,-9.065747,9.446936022,1.430233815,-1.806461442,-9.38900334,9.673266102
12:34.0,1.42E+12,1.5606546,-2.135609,-9.118288,9.494190046,1.429305747,-1.81160774,-9.38283016,9.668236636
12:34.0,1.42E+12,1.5850539,-2.0362158,-9.239237,9.592813508,1.428422585,-1.81822099,-9.38230626,9.668874211
12:34.1,1.42E+12,1.5429913,-1.9405646,-9.471254,9.790365951,1.426817921,-1.821708738,-9.38436896,9.671274298
12:34.1,1.42E+12,1.4656023,-1.9633173,-9.41557,9.729109073,1.424542653,-1.82445403,-9.3871831,9.674177635
12:34.1,1.42E+12,1.3623171,-1.99565,-9.363329,9.670080494,1.417489321,-1.823343336,-9.3911798,9.67666759
12:34.1,1.42E+12,1.5305672,-2.0389102,-9.315129,9.65771293,1.421447091,-1.82985779,-9.39215876,9.67948199
12:34.1,1.42E+12,1.4852115,-2.0377126,-9.283395,9.619747843,1.427766951,-1.832504286,-9.38518028,9.674110273
12:34.2,1.42E+12,1.4338683,-1.9444565,-9.312136,9.620434827,1.430099103,-1.839069634,-9.37688154,9.667558479
12:34.2,1.42E+12,1.4434483,-2.0302281,-9.231303,9.561502194,1.428353731,-1.84512604,-9.36941506,9.661227502
12:34.2,1.42E+12,1.6173866,-2.0748353,-9.258098,9.62461737,1.428626163,-1.855244996,-9.36875344,9.662555546
12:34.2,1.42E+12,1.7006135,-2.072141,-9.370963,9.746835494,1.432122891,-1.865334016,-9.37355845,9.669709873
12:34.2,1.42E+12,1.6389418,-1.9179616,-9.292975,9.629334934,1.433107841,-1.874417128,-9.37189989,9.669862258
12:34.3,1.42E+12,1.5817608,-1.9899619,-9.239536,9.582846189,1.433338363,-1.882347636,-9.36729247,9.666907963
12:34.3,1.42E+12,1.5910414,-1.9702029,-9.1500225,9.493999366,1.430401469,-1.892786926,-9.35959248,9.66079378
12:34.3,1.42E+12,1.6555573,-2.103426,-9.221424,9.60207954,1.426213179,-1.903935744,-9.35483538,9.657544666
12:34.3,1.42E+12,1.5187417,-2.068249,-9.236543,9.586342205,1.418109031,-1.911075894,-9.35483538,9.657497002
12:34.3,1.42E+12,1.5862514,-1.9621197,-9.260193,9.597774826,1.412480737,-1.91840166,-9.35639214,9.659346741
12:34.4,1.42E+12,1.6584014,-1.9832258,-9.385483,9.735028039,1.410618609,-1.925520856,-9.36097862,9.664784499
12:34.4,1.42E+12,1.4879059,-1.8983524,-9.304352,9.611897416,1.408157727,-1.928287106,-9.35951768,9.663498792
12:34.4,1.42E+12,1.6733702,-2.009571,-9.162447,9.52832506,1.414995507,-1.935283554,-9.35671852,9.663212108
12:34.4,1.42E+12,1.5331119,-2.055226,-9.159752,9.511858005,1.417531233,-1.942037508,-9.35250928,9.660857922
12:34.4,1.42E+12,1.6503181,-2.078877,-9.115145,9.493742559,1.423599611,-1.949054916,-9.34756956,9.658431301
12:34.6,1.42E+12,1.7458196,-1.9613713,-9.275162,9.639683272,1.433464099,-1.953350982,-9.34486618,9.658171788
12:34.6,1.42E+12,1.7018111,-1.8946102,-9.397308,9.736277855,1.444244681,-1.952195386,-9.34655766,9.661177859
12:34.6,1.42E+12,1.7371376,-1.8702109,-9.42515,9.764670418,1.452800889,-1.952611522,-9.3455757,9.661642103
12:34.6,1.42E+12,1.5985259,-1.7745597,-9.412726,9.711012199,1.459689565,-1.948255578,-9.34269868,9.659016827
12:34.6,1.42E+12,1.4162049,-1.9972966,-9.292077,9.609241645,1.460925991,-1.949956042,-9.33674108,9.653759598
12:34.6,1.42E+12,1.4837146,-1.9020946,-9.326955,9.633870585,1.463177309,-1.948737574,-9.33244802,9.649687654
12:34.6,1.42E+12,1.4754817,-1.9305354,-9.283844,9.596550036,1.461761255,-1.949369262,-9.33052004,9.647725933
12:34.6,1.42E+12,1.5492783,-1.9261944,-9.312136,9.634644,1.457228681,-1.953021664,-9.3269934,9.644230208
12:34.6,1.42E+12,1.647025,-1.8285974,-9.355096,9.673380018,1.458120827,-1.95124935,-9.32620004,9.643270404
12:34.6,1.42E+12,1.6416363,-2.0013382,-9.462124,9.809796885,1.458459125,-1.954710152,-9.3289663,9.64668061
12:34.7,1.42E+12,1.6998651,-1.9968475,-9.289832,9.65287107,1.466988387,-1.956823756,-9.33094818,9.650351938
12:34.7,1.42E+12,1.7646804,-2.1272264,-9.325308,9.726281837,1.484154691,-1.961781448,-9.32952314,9.65236912
12:34.7,1.42E+12,1.737437,-1.9721489,-9.225316,9.592419607,1.503234016,-1.963619626,-9.32346074,9.649342966
12:34.7,1.42E+12,1.8043479,-1.9818786,-9.265882,9.645728763,1.522394174,-1.966475686,-9.32106872,9.650230687
12:34.8,1.42E+12,1.6745677,-1.9101777,-9.339678,9.678974169,1.541772876,-1.970765764,-9.32114058,9.653509661
12:34.8,1.42E+12,1.5774198,-1.9124231,-9.301357,9.626050975,1.556098088,-1.973591886,-9.31866172,9.653453703
12:34.8,1.42E+12,1.5998731,-1.9574794,-9.217682,9.558084588,1.566327816,-1.976097676,-9.3116593,9.648570135
12:34.8,1.42E+12,1.5654446,-1.7859361,-9.328601,9.626161289,1.575120532,-1.974493012,-9.30861164,9.646528111
12:34.8,1.42E+12,1.7260606,-1.6498691,-9.474697,9.770938363,1.582401392,-1.968819808,-9.3037258,9.64189451
12:34.8,1.42E+12,1.7027092,-1.7040564,-9.490415,9.791373944,1.59149049,-1.967041506,-9.30001952,9.639335884
12:34.9,1.42E+12,1.6480728,-1.7962646,-9.421108,9.731391803,1.599603618,-1.965436844,-9.30108828,9.641279435
12:34.9,1.42E+12,1.5750247,-1.8529967,-9.361084,9.671824711,1.600522706,-1.962667602,-9.30352222,9.64322678
12:34.9,1.42E+12,1.7967137,-1.8038988,-9.367221,9.707062391,1.606737782,-1.958949336,-9.30698303,9.646894529
12:34.9,1.42E+12,1.5798148,-1.8428178,-9.297167,9.608803592,1.608914258,-1.956877644,-9.30817157,9.64798095
12:34.9,1.42E+12,1.4212945,-1.7031583,-9.258547,9.520583953,1.60545645,-1.94920161,-9.30539635,9.643245274
12:35.0,1.42E+12,1.3322296,-1.834585,-9.421408,9.690380103,1.597690598,-1.944357684,-9.30637533,9.641997802
12:35.0,1.42E+12,1.2780423,-1.9019449,-9.49221,9.764877736,1.58919726,-1.94375893,-9.30784825,9.642010194
12:35.0,1.42E+12,1.3183086,-1.9696041,-9.39147,9.685916923,1.582033158,-1.941938716,-9.31436271,9.646789812
12:35.0,1.42E+12,1.348845,-1.9808308,-9.3437195,9.646147811,1.577796966,-1.938843152,-9.31887134,9.649828967
12:35.0,1.42E+12,1.1990067,-1.909579,-9.160501,9.433922175,1.570076022,-1.936310416,-9.31729662,9.646651141
12:35.2,1.42E+12,1.0470726,-1.9600241,-9.136849,9.403194412,1.560157648,-1.936699606,-9.31060852,9.63890771
12:35.2,1.42E+12,1.093027,-1.9103274,-9.273516,9.531115244,1.552706142,-1.935639808,-9.30776744,9.634947833
12:35.2,1.42E+12,1.081501,-2.0534298,-9.412577,9.694473897,1.54708982,-1.936795404,-9.3087524,9.635435701
12:35.2,1.42E+12,1.1445199,-2.0728893,-9.368269,9.662880518,1.539368874,-1.937474986,-9.3098152,9.635539053
12:35.2,1.42E+12,1.1526031,-1.9907103,-9.3839855,9.661811697,1.532716706,-1.93653494,-9.31182701,9.63638033
12:35.2,1.42E+12,1.1305989,-1.9809805,-9.373807,9.647320627,1.526651318,-1.93726542,-9.31306043,9.636918046
12:35.2,1.42E+12,1.0080038,-1.9314336,-9.474398,9.72166266,1.517942428,-1.93528953,-9.31792233,9.640121255
12:35.2,1.42E+12,1.2160711,-2.016307,-9.34357,9.635695262,1.509916118,-1.934118964,-9.31963177,9.640342813
12:35.2,1.42E+12,1.1584411,-2.0194504,-9.3558445,9.641161341,1.49907267,-1.933065152,-9.3193294,9.63822933
12:35.2,1.42E+12,1.2057426,-1.9758911,-9.432335,9.71220389,1.490408686,-1.934223742,-9.3221166,9.639886709
12:35.3,1.42E+12,1.2497511,-2.0230432,-9.470057,9.764044305,1.483768492,-1.934885368,-9.32672702,9.643510672
12:35.3,1.42E+12,1.1593392,-2.0248394,-9.472901,9.756018416,1.475134448,-1.935978098,-9.33318459,9.648751053
12:35.3,1.42E+12,1.1082953,-1.9898121,-9.495055,9.764411919,1.464189208,-1.93370582,-9.33865721,9.6519977
12:35.3,1.42E+12,1.0912308,-1.9691551,-9.499695,9.762815248,1.45563899,-1.931723942,-9.34392025,9.655527161
12:35.3,1.42E+12,1.0904824,-1.8922151,-9.386681,9.637396435,1.44572361,-1.93032585,-9.34645001,9.656319593
12:35.4,1.42E+12,1.1241623,-2.0143611,-9.255104,9.538256736,1.435038828,-1.930948556,-9.34384243,9.652384167
12:35.4,1.42E+12,1.2669654,-2.0588186,-9.148675,9.462673492,1.430620018,-1.93415788,-9.34072889,9.649399689
12:35.5,1.42E+12,1.0665321,-2.081272,-9.174421,9.467797238,1.418483256,-1.9355919,-9.34096837,9.648189132
12:35.5,1.42E+12,1.0550061,-1.9907103,-9.340277,9.608160064,1.40892114,-1.934301586,-9.34457887,9.650115174
12:35.5,1.42E+12,1.2650194,-2.058669,-9.393117,9.698919482,1.401215166,-1.933897426,-9.35013831,9.654218712
12:35.5,1.42E+12,1.22146,-2.0550764,-9.276659,9.579754994,1.390727974,-1.935771528,-9.35016825,9.653020146
12:35.5,1.42E+12,1.2159215,-1.9561322,-9.347462,9.627043374,1.381010182,-1.937001968,-9.34917133,9.650835457
12:35.5,1.42E+12,1.2096345,-1.9660116,-9.215735,9.500430981,1.37046012,-1.938917982,-9.34498303,9.645550668
12:35.5,1.42E+12,1.3207036,-2.0806732,-9.239536,9.562556377,1.364903674,-1.945040252,-9.34151923,9.642581552
12:35.5,1.42E+12,1.1895763,-2.1993763,-9.292826,9.623355078,1.360371102,-1.949081846,-9.34153421,9.64286382
12:35.6,1.42E+12,1.2862751,-2.0242405,-9.320667,9.624286288,1.356422312,-1.951524764,-9.34140845,9.642672134
12:35.6,1.42E+12,1.3168117,-2.0667522,-9.522148,9.832434096,1.353248912,-1.9542491,-9.34617453,9.647389816
12:35.6,1.42E+12,1.4645544,-2.043251,-9.372161,9.703463096,1.351554434,-1.956590232,-9.34737503,9.648766197
12:35.6,1.42E+12,1.3286371,-1.9923569,-9.328451,9.630927298,1.345186676,-1.959865422,-9.34684213,9.647917143
12:35.7,1.42E+12,1.4560221,-2.0191512,-9.278605,9.606741522,1.341474392,-1.960221682,-9.34317175,9.643856036
12:35.7,1.42E+12,1.4003379,-2.0124152,-9.384135,9.699110829,1.335483848,-1.960533036,-9.34505781,9.644780831
12:35.8,1.42E+12,1.5509248,-2.047592,-9.267977,9.617348824,1.331208736,-1.958940348,-9.34391119,9.642602171
12:35.8,1.42E+12,1.6771125,-1.8964064,-9.41557,9.749975487,1.330002246,-1.957425498,-9.34771627,9.645753288
12:35.8,1.42E+12,1.5187417,-2.0871098,-9.372609,9.721543249,1.324290122,-1.959530122,-9.34985081,9.647269578
12:35.8,1.42E+12,1.5548167,-1.8857785,-9.331744,9.64650515,1.321895102,-1.959042138,-9.34969213,9.646620198
12:35.8,1.42E+12,1.5338603,-2.0249891,-9.342671,9.681880483,1.321023912,-1.961293458,-9.35051841,9.647736788
12:35.8,1.42E+12,1.7301022,-1.9872675,-9.231902,9.600546874,1.323628494,-1.96188922,-9.35080281,9.648586034
12:35.9,1.42E+12,1.6227754,-1.9446062,-9.30046,9.639162281,1.32477511,-1.965062622,-9.35023999,9.648846053
12:35.9,1.42E+12,1.6371455,-1.99086,-9.335037,9.684352571,1.322996808,-1.97188244,-9.34744679,9.647114338
12:35.9,1.42E+12,1.5804135,-2.0263362,-9.220526,9.571930053,1.320550894,-1.978328036,-9.34204901,9.64272546
12:35.9,1.42E+12,1.7896783,-1.9702029,-9.359287,9.730411144,1.323383004,-1.981806802,-9.34081259,9.642705847
12:35.9,1.42E+12,1.7034576,-2.019301,-9.30989,9.677468478,1.325951662,-1.985132888,-9.33978871,9.642818722
12:36.0,1.42E+12,1.6780106,-1.9327807,-9.33414,9.678715325,1.3235776,-1.987710526,-9.33912709,9.642251781
12:36.0,1.42E+12,1.8083894,-1.8755996,-9.390872,9.745595056,1.328149092,-1.988366162,-9.34100119,9.64498761
12:36.0,1.42E+12,1.8112335,-1.7934206,-9.279653,9.623350978,1.335947872,-1.990171408,-9.34142331,9.64704295
12:36.0,1.42E+12,1.963018,-1.8559904,-9.41063,9.790714838,1.34856364,-1.990599516,-9.34120775,9.649049645
12:36.0,1.42E+12,1.8781444,-1.8203645,-9.498498,9.852036214,1.360565682,-1.988967908,-9.34133351,9.650792815
12:36.1,1.42E+12,1.8080901,-2.0410056,-9.339678,9.729567247,1.370361312,-1.990395938,-9.34029767,9.651665821
12:36.1,1.42E+12,2.0733385,-2.0401075,-9.3116865,9.755422934,1.384851182,-1.991581472,-9.33965701,9.653851324
12:36.1,1.42E+12,1.9830762,-2.003434,-9.150621,9.574978,1.400532572,-1.993458572,-9.33945941,9.65667244
12:36.1,1.42E+12,1.9699036,-2.028432,-9.119636,9.547922148,1.418989192,-1.99482673,-9.33911515,9.659566995
12:36.1,1.42E+12,1.8684146,-2.0161574,-8.962313,9.374375611,1.434496944,-1.99694333,-9.33289109,9.656432202
12:36.2,1.42E+12,1.9043399,-2.193838,-9.0165,9.472946103,1.450953722,-1.999751494,-9.32496955,9.652001646
12:36.2,1.42E+12,2.054328,-2.2912853,-9.092991,9.599621721,1.469149884,-2.004119414,-9.31946399,9.65073647
12:36.2,1.42E+12,1.8468595,-2.2718258,-9.159602,9.616152623,1.483035012,-2.009741724,-9.31497632,9.649823289
12:36.2,1.42E+12,1.8967057,-2.1305196,-9.000034,9.441250885,1.498357148,-2.012732506,-9.30750086,9.645701894
12:36.3,1.42E+12,1.712439,-2.1884491,-9.064401,9.48077646,1.512445852,-2.017872816,-9.29930092,9.64088417
12:36.3,1.42E+12,1.719624,-2.0960913,-9.358838,9.743641729,1.52251691,-2.019468502,-9.29960628,9.643043099
12:36.3,1.42E+12,1.7786014,-2.1665945,-9.503587,9.908366189,1.534920116,-2.022411384,-9.30256113,9.648387196
12:36.3,1.42E+12,1.8796413,-2.1823118,-9.40135,9.832645526,1.54839809,-2.026539798,-9.30194143,9.650796029
12:36.3,1.42E+12,1.8074913,-2.3019133,-9.331894,9.780085647,1.559552894,-2.0321172,-9.29917817,9.651116856
12:36.3,1.42E+12,1.7091458,-2.2424867,-9.182954,9.606069442,1.570549026,-2.036470146,-9.29337923,9.648117876
12:36.6,1.42E+12,1.4808705,-2.0619621,-9.0093155,9.360151223,1.57800053,-2.037913146,-9.28366444,9.640032662
12:36.6,1.42E+12,1.5419436,-2.119293,-9.101823,9.471651113,1.587014786,-2.040915904,-9.275707,9.63420938
12:36.6,1.42E+12,1.6416363,-2.064357,-9.263187,9.631364024,1.598037864,-2.044358742,-9.27323712,9.634088732
12:36.6,1.42E+12,1.6263679,-2.1710851,-9.375005,9.759580002,1.608081976,-2.047493222,-9.27563514,9.638515197
12:36.6,1.42E+12,1.5105089,-2.3486161,-9.360635,9.768271205,1.612952846,-2.053289172,-9.27987434,9.644627151
12:36.6,1.42E+12,1.4212945,-2.1915925,-9.370963,9.728211721,1.620048094,-2.055495582,-9.28380518,9.649835441
12:36.6,1.42E+12,1.4099181,-2.2405407,-9.0269785,9.407137318,1.627146334,-2.06049219,-9.27753921,9.645814986
12:36.6,1.42E+12,1.3654605,-2.1270766,-9.105266,9.44959291,1.629155156,-2.061860342,-9.27178219,9.640828454
12:36.6,1.42E+12,1.3784834,-2.142345,-9.2449255,9.589499783,1.632295624,-2.063605714,-9.27114752,9.64102335
12:36.6,1.42E+12,1.2798386,-2.2357507,-9.328451,9.677632257,1.633573966,-2.069198084,-9.2707673,9.642035128
12:36.6,1.42E+12,1.4358143,-2.1420455,-9.092691,9.451293628,1.638097562,-2.072718762,-9.26830642,9.641052381
12:36.6,1.42E+12,1.6274158,-2.1689897,-8.853639,9.259585414,1.644231806,-2.074485092,-9.26058848,9.634992962
12:36.7,1.42E+12,1.5389497,-2.0782783,-8.738678,9.113292493,1.651219274,-2.072063132,-9.24950552,9.62479171
12:36.7,1.42E+12,1.5721806,-1.9661614,-9.620943,9.944852271,1.656937384,-2.07090155,-9.25551104,9.631203029
12:36.7,1.42E+12,1.3657598,-2.0501368,-9.283994,9.605254048,1.657916346,-2.070569242,-9.25074796,9.626659429
12:36.7,1.42E+12,1.3296849,-1.9582279,-9.16574,9.466441158,1.655218956,-2.06886878,-9.24661954,9.62191899
12:36.7,1.42E+12,1.323398,-2.0501368,-9.5037365,9.812005433,1.655114174,-2.070024378,-9.25012525,9.625540552
12:36.7,1.42E+12,1.1816428,-1.7808467,-9.513766,9.750868586,1.649626588,-2.065258288,-9.25482847,9.628423094
12:36.8,1.42E+12,1.0011182,-1.5988252,-9.354347,9.542656206,1.641642194,-2.056986488,-9.25423271,9.625294001
12:36.8,1.42E+12,1.0446776,-1.6136444,-9.571096,9.762227112,1.63151725,-2.048307536,-9.26029509,9.628191567
12:36.8,1.42E+12,1.1120375,-1.6443306,-9.553583,9.757632841,1.62021575,-2.04326602,-9.26305535,9.628344714
12:36.8,1.42E+12,1.3123211,-1.7727635,-9.422007,9.676729458,1.616087338,-2.036979094,-9.26404331,9.627448438
12:36.8,1.42E+12,1.3063334,-1.6012203,-9.426048,9.649911621,1.611117672,-2.03128793,-9.26592939,9.627516568
12:36.8,1.42E+12,1.3287867,-1.8166223,-9.520502,9.782931514,1.6070162,-2.027120594,-9.26948601,9.629537588
12:36.8,1.42E+12,1.5420932,-1.9784359,-9.384135,9.713611571,1.60325602,-2.026943962,-9.27253067,9.631798882
12:36.9,1.42E+12,1.572929,-1.9648142,-9.519753,9.846842015,1.602259092,-2.027348122,-9.27691653,9.635952477
12:36.9,1.42E+12,1.5172448,-1.8679656,-9.515113,9.814718675,1.599861078,-2.024890234,-9.28051805,9.638559799
12:36.9,1.42E+12,1.3885126,-1.9821781,-9.543554,9.845629498,1.59602306,-2.024007072,-9.28697861,9.644033788
12:36.9,1.42E+12,1.4572197,-2.0481908,-9.122929,9.462896404,1.589373888,-2.02556683,-9.28225145,9.638683493
12:36.9,1.42E+12,1.4682966,-2.036066,-8.993748,9.337503025,1.584670668,-2.02590213,-9.27592861,9.631884184
12:37.0,1.42E+12,1.5280224,-1.9806812,-9.26184,9.593728715,1.581670904,-2.02686014,-9.27448261,9.630184452
12:37.0,1.42E+12,1.3994398,-1.757196,-9.313782,9.580850937,1.573491912,-2.024492068,-9.27294081,9.626889569
12:37.0,1.42E+12,1.5203884,-1.7862355,-9.502689,9.787916856,1.56767501,-2.024348366,-9.27740153,9.630180887
12:37.1,1.42E+12,1.49554,-1.7794995,-9.515263,9.795074697,1.55832545,-2.022818548,-9.27949419,9.630268084
12:37.1,1.42E+12,1.4421011,-1.833088,-9.595496,9.874887882,1.549604584,-2.023073018,-9.28143415,9.630725118
12:37.1,1.42E+12,1.2801379,-1.926943,-9.452992,9.731953561,1.53904554,-2.020791766,-9.28370043,9.630772844
12:37.1,1.42E+12,1.4407539,-2.0184028,-9.239985,9.566976767,1.526393848,-2.020357672,-9.2822664,9.627003921
12:37.1,1.42E+12,1.4313235,-1.834585,-9.066496,9.360327922,1.515358794,-2.016980692,-9.2805839,9.622710919
12:37.1,1.42E+12,1.4365627,-1.8296453,-9.147778,9.438917133,1.504691976,-2.013004958,-9.28114674,9.620530819
12:37.1,1.42E+12,1.4844631,-1.857637,-9.361532,9.658816041,1.497012946,-2.00983455,-9.28913112,9.626219627
12:37.2,1.42E+12,1.3546829,-1.8970052,-9.320817,9.607883432,1.486019806,-2.003897894,-9.29521746,9.628918374
12:37.2,1.42E+12,1.2648697,-1.9911593,-9.485025,9.773960813,1.47023064,-1.997895374,-9.30305814,9.632405156
12:37.2,1.42E+12,1.3328284,-2.0706441,-9.448352,9.763982489,1.459950018,-1.99387174,-9.30883314,9.635361753
12:37.2,1.42E+12,1.4130615,-1.8883232,-9.303004,9.597311641,1.450277134,-1.989027812,-9.31489254,9.638482968
12:37.2,1.42E+12,1.4367124,-1.9673588,-9.250913,9.566296802,1.444762602,-1.984606006,-9.31862278,9.640193375
12:37.3,1.42E+12,1.4626085,-1.8886226,-9.329649,9.630600678,1.439622292,-1.980456632,-9.318039,9.637932554
12:37.3,1.42E+12,1.5221846,-1.8836828,-9.297615,9.607858842,1.434493956,-1.974798398,-9.31391956,9.631922407
12:37.3,1.42E+12,1.4085709,-1.8799406,-9.363329,9.653506026,1.425072548,-1.968750974,-9.31315914,9.628339617
12:37.3,1.42E+12,1.4629079,-2.032623,-9.3309965,9.661218943,1.41818088,-1.963365168,-9.31314119,9.625962283
12:37.3,1.42E+12,1.391207,-1.9188597,-9.358389,9.653855403,1.411822104,-1.956892628,-9.31664989,9.626918002
12:37.4,1.42E+12,1.4085709,-1.875001,-9.370664,9.659660684,1.410376112,-1.953153406,-9.32387686,9.632908191
12:37.4,1.42E+12,1.3865666,-2.0170555,-9.4314375,9.743874647,1.407268572,-1.951108656,-9.33046915,9.638352662
12:37.4,1.42E+12,1.3832735,-1.8693128,-9.238788,9.526960671,1.402101316,-1.947207772,-9.32998117,9.636264595
12:37.4,1.42E+12,1.4156063,-1.9601738,-9.221274,9.533001453,1.397886084,-1.942989546,-9.32690655,9.631733024
12:37.4,1.42E+12,1.3395643,-2.0243902,-9.271569,9.584079503,1.394467192,-1.936505028,-9.32512523,9.62804919
12:37.5,1.42E+12,1.3862672,-1.848506,-9.3292,9.611070899,1.393766646,-1.929643298,-9.32428997,9.625706374
12:37.5,1.42E+12,1.479673,-1.9814296,-9.311986,9.634758882,1.395161744,-1.924461076,-9.32999012,9.630258805
12:37.5,1.42E+12,1.4124627,-1.9712508,-9.174122,9.489225209,1.396101788,-1.92134456,-9.33136724,9.631051451
12:37.5,1.42E+12,1.5347584,-1.997147,-9.315129,9.649648065,1.399227288,-1.9184406,-9.33277131,9.632254416
12:37.5,1.42E+12,1.4518309,-1.9974463,-9.36752,9.687519581,1.402667134,-1.913674512,-9.33355269,9.632452163
12:37.6,1.42E+12,1.4790742,-1.9616706,-9.265882,9.586051391,1.403532332,-1.910067014,-9.33701651,9.635147318
12:37.6,1.42E+12,1.6094531,-1.9935544,-9.340277,9.685317386,1.403173078,-1.906558308,-9.34674927,9.643661958
12:37.6,1.42E+12,1.5528708,-1.934577,-9.351503,9.674947248,1.4034515,-1.903684282,-9.35900577,9.654895053
12:37.6,1.42E+12,1.3386662,-1.940864,-9.314231,9.608011209,1.398781212,-1.903178334,-9.35287153,9.648158231
12:37.6,1.42E+12,1.6160394,-1.9901116,-9.356443,9.701296467,1.403786804,-1.90197783,-9.35432051,9.65007908
12:37.7,1.42E+12,1.5184424,-1.9652632,-9.2802515,9.606820216,1.407561954,-1.902118536,-9.35661074,9.652886661
12:37.7,1.42E+12,1.5039226,-1.993255,-9.304352,9.633577467,1.411172446,-1.9009809,-9.35262305,9.649318102
12:37.7,1.42E+12,1.6530125,-1.9106269,-9.30959,9.646315952,1.42059984,-1.903576504,-9.34853953,9.647227049
12:37.7,1.42E+12,1.5551162,-1.986968,-9.312584,9.648349547,1.4316798,-1.91133936,-9.34770427,9.649340916
12:37.7,1.42E+12,1.7043557,-2.0865111,-9.404344,9.782639879,1.444873362,-1.920796694,-9.34436923,9.649749171
12:37.8,1.42E+12,1.633553,-2.0233424,-9.280401,9.637855186,1.455303672,-1.92837693,-9.33890559,9.647353618
12:37.8,1.42E+12,1.6613951,-2.0742366,-9.370963,9.74051532,1.462285152,-1.934406392,-9.33788471,9.648629335
12:37.8,1.42E+12,1.493594,-2.0553758,-9.342971,9.682277615,1.466030364,-1.943489502,-9.33622317,9.649276655
12:37.8,1.42E+12,1.5290703,-2.142345,-9.387728,9.749724872,1.470036036,-1.950003956,-9.33356769,9.648612522
12:37.8,1.42E+12,1.533561,-1.8019528,-9.337732,9.63286469,1.469865392,-1.946474294,-9.33263963,9.646997585
12:37.9,1.42E+12,1.4188994,-2.011517,-9.223669,9.54649391,1.4667848,-1.94740835,-9.32671795,9.640990623
12:37.9,1.42E+12,1.719624,-2.0408561,-9.448502,9.818166344,1.470832384,-1.95086616,-9.32538573,9.641059576
12:37.9,1.42E+12,1.6892372,-2.046544,-9.342522,9.712084327,1.476846876,-1.952153478,-9.32136509,9.638388673
12:37.9,1.42E+12,1.4699433,-2.1302202,-9.185798,9.543450964,1.477101348,-1.953794066,-9.32262247,9.639999764
12:37.9,1.42E+12,1.5432907,-2.098037,-9.26648,9.625547103,1.47860123,-1.955033486,-9.32807711,9.645760645
12:38.0,1.42E+12,1.5461348,-1.9217038,-9.18505,9.510448035,1.478963478,-1.953853938,-9.32654131,9.644095032
12:38.0,1.42E+12,1.4362633,-2.0215461,-9.254505,9.580989703,1.479699948,-1.95914094,-9.32535577,9.644097807
12:38.1,1.42E+12,1.5688875,-1.9854712,-9.316028,9.653594231,1.48066993,-1.963125654,-9.32162255,9.641411355
12:38.1,1.42E+12,1.5250287,-2.0320244,-9.22307,9.566601064,1.481259704,-1.968176152,-9.31577869,9.636841882
12:38.1,1.42E+12,1.6161891,-1.9381696,-9.216784,9.55602825,1.484741464,-1.970277784,-9.30820445,9.630464689
12:38.1,1.42E+12,1.5175443,-1.968257,-9.304052,9.630283482,1.489489592,-1.971104064,-9.30522565,9.628431288
12:38.1,1.42E+12,1.5064673,-1.868714,-9.2979145,9.602746992,1.49080386,-1.968110288,-9.30638424,9.629146692
12:38.1,1.42E+12,1.5385007,-1.9318826,-9.143287,9.470947785,1.492947404,-1.97005624,-9.30792006,9.631359089
12:38.1,1.42E+12,1.4763799,-2.1299207,-9.269923,9.625369199,1.493743748,-1.976061748,-9.31036296,9.635088131
12:38.1,1.42E+12,1.4371614,-1.9544857,-9.245523,9.558511536,1.492797714,-1.977998722,-9.30804278,9.633082041
12:38.2,1.42E+12,1.5052698,-2.0621119,-9.344618,9.687106287,1.495809452,-1.981300856,-9.3085188,9.634666498
12:38.2,1.42E+12,1.4359639,-1.9022442,-9.251661,9.553729982,1.499231336,-1.979522554,-9.30385152,9.630261881
12:38.2,1.42E+12,1.606609,-2.045646,-9.178014,9.539486413,1.504706948,-1.979022592,-9.29844476,9.62577196
12:38.2,1.42E+12,1.5193405,-2.0755837,-9.221125,9.573170296,1.506832528,-1.982767802,-9.29680718,9.625289133
12:38.3,1.42E+12,1.5106586,-1.9670595,-9.31468,9.639225902,1.508311452,-1.982761816,-9.29808252,9.626747715
12:38.3,1.42E+12,1.5247293,-1.9475999,-9.293425,9.616948219,1.509553868,-1.983941362,-9.29735804,9.626474666
12:38.3,1.42E+12,1.4856606,-2.1532722,-9.235045,9.598428243,1.508823388,-1.98933315,-9.29610664,9.626286054
12:38.3,1.42E+12,1.4900016,-2.0481908,-9.364975,9.701440464,1.510452002,-1.992698154,-9.29613956,9.627244742
12:38.3,1.42E+12,1.4708414,-1.9221529,-9.227561,9.539702731,1.510610672,-1.990488752,-9.29407085,9.624814418
12:38.4,1.42E+12,1.4284794,-2.0116668,-9.260642,9.583676067,1.51135612,-1.992344894,-9.29211591,9.623410831
12:38.4,1.42E+12,1.526825,-1.9761904,-9.293724,9.623400068,1.513721202,-1.994368682,-9.29057711,9.622685619
12:38.4,1.42E+12,1.515748,-1.9802321,-9.284143,9.613226431,1.51630483,-1.993632214,-9.28763122,9.620072655
12:38.4,1.42E+12,1.6203804,-2.080823,-9.277857,9.645417954,1.521046968,-1.997862418,-9.2884126,9.6224418
12:38.4,1.42E+12,1.4675483,-2.051035,-9.262289,9.599502076,1.522085808,-1.999679642,-9.2892329,9.623771813
12:38.4,1.42E+12,1.6295114,-2.03412,-9.3613825,9.717429387,1.52788475,-1.999874238,-9.29102917,9.626438811
12:38.5,1.42E+12,1.5200889,-2.0103195,-9.315129,9.650061297,1.530561184,-2.003110508,-9.29074775,9.627218618
12:38.5,1.42E+12,1.4615607,-2.085014,-9.334439,9.675494535,1.530198938,-2.005182196,-9.29119681,9.628033332
12:38.5,1.42E+12,1.4730867,-1.9493963,-9.442514,9.753522492,1.531411418,-2.004745106,-9.29656465,9.633319277
12:38.5,1.42E+12,1.5120058,-2.0872595,-9.271121,9.622707434,1.530956366,-2.006547356,-9.29568449,9.632780465
12:38.5,1.42E+12,1.4760804,-2.0501368,-9.26184,9.600185125,1.531441356,-2.007601166,-9.29357089,9.631033775
12:38.6,1.42E+12,1.4394068,-2.0872595,-9.217532,9.559887046,1.530648008,-2.010112944,-9.29260389,9.630510489
12:38.6,1.42E+12,1.4142591,-2.1016297,-9.170979,9.514401296,1.526744128,-2.01227445,-9.28921793,9.627092167
12:38.6,1.42E+12,1.4908997,-2.0339704,-9.33429,9.668959991,1.525504706,-2.014262318,-9.28887367,9.626972422
12:38.6,1.42E+12,1.5504757,-1.9721489,-9.33384,9.665087445,1.529740896,-2.014888016,-9.28926585,9.628113946
12:38.6,1.42E+12,1.583557,-2.0680993,-9.263038,9.622294969,1.529091248,-2.01644777,-9.28739775,9.626533916
12:38.7,1.42E+12,1.5151492,-2.048041,-9.218131,9.563685909,1.529025384,-2.018103326,-9.28615534,9.62567123
12:38.7,1.42E+12,1.4352155,-2.1278253,-9.240135,9.589972829,1.527651242,-2.020794732,-9.284871,9.624799137
12:38.7,1.42E+12,1.4554235,-2.026486,-9.231303,9.562523629,1.523699462,-2.023111914,-9.28330526,9.623123291
12:38.7,1.42E+12,1.3904586,-2.0537293,-9.283545,9.609130394,1.52040631,-2.02444714,-9.28272448,9.622338908
12:38.7,1.42E+12,1.4858103,-2.0866609,-9.251961,9.600029599,1.516035402,-2.024450136,-9.27967682,9.618686702
12:38.8,1.42E+12,1.4563216,-2.210603,-9.3533,9.720692317,1.512490774,-2.028195348,-9.2811348,9.620343445
12:38.8,1.42E+12,1.4337186,-2.0592678,-9.266031,9.599763715,1.507937244,-2.027895972,-9.27903616,9.617528413
12:38.8,1.42E+12,1.4036311,-2.0098705,-9.24717,9.566604032,1.506137986,-2.026985866,-9.27712014,9.615214941
12:38.8,1.42E+12,1.4608122,-2.1174967,-9.192534,9.545703007,1.504772824,-2.0264889,-9.27321626,9.611134504
12:38.8,1.42E+12,1.3510904,-2.1275258,-9.251961,9.589087216,1.501123412,-2.03300036,-9.27150084,9.610258954
12:38.9,1.42E+12,1.4525794,-2.0143611,-9.341774,9.666249481,1.501797012,-2.033057242,-9.27386294,9.612654066
12:38.9,1.42E+12,1.4165044,-1.9794836,-9.271271,9.585473697,1.49573462,-2.031829792,-9.27031832,9.608000213
12:38.9,1.42E+12,1.6021184,-2.015858,-9.307795,9.65740724,1.493992244,-2.031216072,-9.26962378,9.606906671
12:38.9,1.42E+12,1.5353572,-1.9531385,-9.276509,9.603420795,1.495300522,-2.027674438,-9.271438,9.608106068
12:38.9,1.42E+12,1.6142431,-2.0198996,-9.298813,9.651616361,1.49671957,-2.02611169,-9.27208466,9.608627453
12:39.0,1.42E+12,1.5581099,-1.9465522,-9.219927,9.551116469,1.496959072,-2.026608658,-9.2727822,9.609440822
12:39.0,1.42E+12,1.4464421,-1.8673668,-9.162746,9.462302456,1.497162648,-2.023525072,-9.27094702,9.607067077
12:39.1,1.42E+12,1.499432,-1.9607725,-9.126521,9.454433388,1.495773538,-2.023031098,-9.26715688,9.60308386
12:39.1,1.42E+12,1.4823674,-1.9514918,-9.270522,9.588968219,1.494920312,-2.021420446,-9.26810592,9.603531203
12:39.1,1.42E+12,1.5033238,-2.0664527,-9.2184305,9.566068685,1.492663006,-2.023986108,-9.26813885,9.603732012
12:39.1,1.42E+12,1.4831158,-2.0722907,-9.202264,9.548595915,1.491974436,-2.026066782,-9.26610309,9.60209826
12:39.1,1.42E+12,1.531166,-2.0496876,-9.265882,9.612609314,1.49246841,-2.029686254,-9.26546244,9.602295507
12:39.1,1.42E+12,1.5834073,-2.039359,-9.281749,9.63415945,1.493366542,-2.031835782,-9.26823168,9.60555974
12:39.1,1.42E+12,1.5600559,-2.0390596,-9.339528,9.685985842,1.495040062,-2.03001856,-9.26962378,9.606772073
12:39.1,1.42E+12,1.5946339,-2.0236418,-9.201216,9.555122149,1.498189512,-2.031401682,-9.26873764,9.606704285
12:39.2,1.42E+12,1.6247214,-1.9380199,-9.246572,9.586174133,1.500578544,-2.028919842,-9.26677672,9.604685642
12:39.2,1.42E+12,1.5087126,-2.0929477,-9.320368,9.670879145,1.502033518,-2.032733912,-9.26815086,9.607028625
12:39.2,1.42E+12,1.5462844,-2.0133133,-9.32905,9.668278016,1.500827026,-2.032087258,-9.27117158,9.609604457
12:39.2,1.42E+12,1.5052698,-2.0881577,-9.253158,9.604539173,1.500545612,-2.032338738,-9.27181224,9.610231835
12:39.2,1.42E+12,1.5820601,-2.049987,-9.285641,9.639942409,1.501973642,-2.033997288,-9.27123146,9.610246165
12:39.3,1.42E+12,1.6097525,-1.9017951,-9.242081,9.572052493,1.503674106,-2.033081192,-9.27020458,9.609348251
12:39.3,1.42E+12,1.5832576,-1.9705024,-9.234447,9.574162926,1.505626046,-2.029425796,-9.27019262,9.608862944
12:39.4,1.42E+12,1.5313156,-2.0766315,-9.27591,9.628075206,1.506452326,-2.02999461,-9.26841132,9.607395639
12:39.4,1.42E+12,1.4495856,-1.8494041,-9.294472,9.586907932,1.50602721,-2.028539634,-9.26974954,9.608339743
12:39.4,1.42E+12,1.5829582,-1.8839822,-9.29522,9.615417851,1.509116786,-2.025985942,-9.2704411,9.608974579
12:39.4,1.42E+12,1.5822098,-2.13037,-9.258697,9.631476228,1.510224482,-2.029069534,-9.26974056,9.609136102
12:39.4,1.42E+12,1.4211447,-2.0483406,-9.371562,9.697501008,1.508332416,-2.030431704,-9.27148894,9.610821594
12:39.4,1.42E+12,1.5245796,-2.0073256,-9.169782,9.509921185,1.5064164,-2.028961756,-9.26932744,9.608111658
12:39.4,1.42E+12,1.5007792,-2.0056791,-9.379346,9.708100651,1.507081018,-2.028054638,-9.27166858,9.61028363
12:39.4,1.42E+12,1.421444,-2.0859122,-9.329799,9.665230578,1.50291967,-2.029090482,-9.27103691,9.609239653
12:39.5,1.42E+12,1.4904506,-2.022145,-9.253457,9.588377331,1.502326904,-2.029326992,-9.26980347,9.608005974
12:39.5,1.42E+12,1.5402969,-2.145189,-9.23325,9.603502275,1.503901628,-2.030530492,-9.26777969,9.606566129
12:39.5,1.42E+12,1.4528787,-2.0640578,-9.3751545,9.709001649,1.503497468,-2.032823722,-9.2664325,9.605675712
12:39.5,1.42E+12,1.4644047,-2.0698957,-9.385034,9.721512872,1.502545446,-2.032476446,-9.26871076,9.607651821
12:39.5,1.42E+12,1.4623091,-2.0053797,-9.3293495,9.653841605,1.50227002,-2.031581304,-9.27006095,9.60872495
12:39.6,1.42E+12,1.5376025,-2.038461,-9.260492,9.606053132,1.504233934,-2.030605334,-9.27092015,9.609648272
