time,time_milisec,ax,ay,az,resultant,MA_ax,MA_ay,MA_az,MA_R
41:17.0,1.42E+12,3.1620245,-7.27098,-6.9729495,10.55876763,0,0,0,0
41:17.0,1.42E+12,3.0440698,-7.69415,-6.7668285,10.6890726,0,0,0,0
41:17.0,1.42E+12,3.1597793,-7.546108,-6.7229695,10.58896926,0,0,0,0
41:17.0,1.42E+12,3.2030392,-6.831344,-6.864575,10.2004466,0,0,0,0
41:17.0,1.42E+12,2.9801528,-6.268215,-6.6618967,9.620431261,0,0,0,0
41:17.1,1.42E+12,2.7017317,-6.88643,-6.515501,9.857688654,0,0,0,0
41:17.1,1.42E+12,2.15911,-7.1389546,-5.915698,9.51955417,0,0,0,0
41:17.1,1.42E+12,2.300566,-6.909182,-5.4000206,9.065849233,0,0,0,0
41:17.1,1.42E+12,2.4956102,-7.582931,-5.147795,9.498879207,0,0,0,0
41:17.1,1.42E+12,2.3055058,-8.245154,-4.7788124,9.804844182,0,0,0,0
41:17.2,1.42E+12,2.6482928,-8.865913,-4.787195,10.41801824,0,0,0,0
41:17.2,1.42E+12,1.8827847,-9.43488,-5.792055,11.2298593,0,0,0,0
41:17.2,1.42E+12,1.1313473,-8.956475,-6.925648,11.37818049,0,0,0,0
41:17.2,1.42E+12,1.2660671,-7.892787,-7.099736,10.69136398,0,0,0,0
41:17.2,1.42E+12,2.110611,-7.461384,-6.0498195,9.835001066,0,0,0,0
41:17.3,1.42E+12,2.7496321,-7.2006264,-4.8383884,9.100521938,0,0,0,0
41:17.3,1.42E+12,2.4803421,-6.567293,-4.3483076,8.257676021,0,0,0,0
41:17.3,1.42E+12,2.1109104,-6.698271,-5.095404,8.676745878,0,0,0,0
41:17.3,1.42E+12,1.7181271,-7.307953,-5.755082,9.45933965,0,0,0,0
41:17.3,1.42E+12,1.6001724,-7.850425,-6.2325892,10.15061045,0,0,0,0
41:17.4,1.42E+12,1.8024019,-8.336614,-7.07863,11.08398792,0,0,0,0
41:17.4,1.42E+12,1.5802639,-8.514295,-7.1870046,11.25359891,0,0,0,0
41:17.4,1.42E+12,1.9438577,-8.155042,-6.7383876,10.75588956,0,0,0,0
41:17.4,1.42E+12,3.2106733,-8.604707,-8.427774,12.46502227,0,0,0,0
41:17.4,1.42E+12,3.52487,-9.191337,-7.8173437,12.57045134,0,0,0,0
41:17.5,1.42E+12,2.1821623,-8.0308,-6.800359,10.74711419,0,0,0,0
41:17.5,1.42E+12,1.8916163,-6.793024,-4.590504,8.414042683,0,0,0,0
41:17.5,1.42E+12,1.5980768,-5.3637958,-2.8605514,6.285452184,0,0,0,0
41:17.6,1.42E+12,2.571802,-5.736371,-4.6830115,7.839050611,0,0,0,0
41:17.6,1.42E+12,2.7783723,-6.3728476,-5.7145166,8.999346595,0,0,0,0
41:17.6,1.42E+12,3.480113,-6.2764482,-6.4993343,9.682269096,0,0,0,0
41:17.6,1.42E+12,3.9670506,-5.95312,-6.085146,9.391811861,0,0,0,0
41:17.6,1.42E+12,3.7908669,-5.5530024,-6.461912,9.325385472,0,0,0,0
41:17.6,1.42E+12,3.2683036,-5.7002964,-7.1259317,9.692991801,0,0,0,0
41:17.6,1.42E+12,3.0570927,-5.9586587,-6.981033,9.673998709,0,0,0,0
41:17.7,1.42E+12,3.60181,-6.0896363,-6.7668285,9.790131434,0,0,0,0
41:17.7,1.42E+12,4.013304,-5.7333775,-7.114855,9.97994931,0,0,0,0
41:17.7,1.42E+12,3.7757483,-5.7999887,-7.1657486,9.962133162,0,0,0,0
41:17.7,1.42E+12,3.6745586,-5.755082,-7.0037856,9.781429469,0,0,0,0
41:17.7,1.42E+12,3.6988082,-6.32345,-7.4321947,10.43574243,0,0,0,0
41:17.8,1.42E+12,3.591781,-6.4634094,-7.436536,10.48706916,0,0,0,0
41:17.8,1.42E+12,3.7149746,-5.949079,-7.4821906,10.25552307,0,0,0,0
41:17.8,1.42E+12,3.9957907,-5.264552,-7.314839,9.858433987,0,0,0,0
41:17.8,1.42E+12,4.1637416,-4.9581394,-7.3437285,9.790313514,0,0,0,0
41:17.9,1.42E+12,4.0098615,-5.129084,-7.305109,9.785249584,0,0,0,0
41:17.9,1.42E+12,3.5271153,-5.0374746,-7.0894074,9.384902235,0,0,0,0
41:17.9,1.42E+12,3.4158967,-5.0605264,-7.1370087,9.39223993,0,0,0,0
41:17.9,1.42E+12,3.5184333,-4.777166,-7.3682775,9.460031776,0,0,0,0
41:17.9,1.42E+12,3.7232075,-4.539011,-7.6731935,9.661407425,0,0,0,0
41:17.9,1.42E+12,3.6275566,-4.628974,-7.627389,9.631387758,2.87819975,-6.733175308,-6.459676038,9.888763545
41:18.0,1.42E+12,3.6488123,-4.529281,-7.417226,9.42568083,2.887935506,-6.678341328,-6.468561568,9.866101809
41:18.0,1.42E+12,3.617677,-4.439019,-7.4627314,9.406637896,2.89940765,-6.613238708,-6.482479626,9.840453115
41:18.0,1.42E+12,3.6929705,-4.577631,-7.8814106,9.834092217,2.910071474,-6.553869168,-6.505648448,9.825355574
41:18.0,1.42E+12,3.541635,-4.2953176,-7.868687,9.638940132,2.91684339,-6.50314864,-6.525730688,9.814125445
41:18.0,1.42E+12,3.5369947,-4.013005,-7.808662,9.465185834,2.927980228,-6.45804444,-6.548665994,9.811020536
41:18.1,1.42E+12,3.5736685,-3.9980361,-7.9966707,9.628195131,2.945418964,-6.400276562,-6.578289388,9.806430666
41:18.1,1.42E+12,3.266208,-4.0420446,-7.870633,9.431495272,2.967560924,-6.338338362,-6.617388088,9.804669488
41:18.1,1.42E+12,3.2314801,-4.1282654,-7.720196,9.332012919,2.986179206,-6.28272003,-6.663791596,9.809992762
41:18.1,1.42E+12,3.0596375,-3.9546263,-8.034542,9.463314216,2.997459752,-6.210153936,-6.721526536,9.809281462
41:18.1,1.42E+12,2.8864477,-4.2228684,-8.231382,9.691225283,3.00907859,-6.129708224,-6.790577928,9.807009084
41:18.2,1.42E+12,2.5842261,-4.1580534,-7.8237805,9.229256412,3.007797256,-6.035551032,-6.851309638,9.783233847
41:18.3,1.42E+12,2.1323159,-4.0838075,-7.8594065,9.110133112,3.01278788,-5.928529582,-6.892656668,9.740839323
41:18.3,1.42E+12,2.084116,-3.9216948,-7.961494,9.116392725,3.031843254,-5.827833978,-6.913373588,9.695603568
41:18.3,1.42E+12,2.1950355,-3.6706667,-8.616831,9.619862335,3.050422622,-5.743391572,-6.943715488,9.674173535
41:18.3,1.42E+12,2.0896544,-3.0832882,-8.41535,9.202795079,3.05000349,-5.655829656,-6.991026098,9.661529416
41:18.3,1.42E+12,1.7298028,-2.852618,-8.315957,8.9601779,3.029606904,-5.568869488,-7.06057747,9.658722535
41:18.3,1.42E+12,2.1734803,-2.5450077,-8.963061,9.567525453,3.023469668,-5.488423782,-7.152872538,9.684919523
41:18.3,1.42E+12,2.6277854,-2.7651997,-9.429192,10.1715902,3.033807168,-5.409762356,-7.239548298,9.71481641
41:18.3,1.42E+12,2.126029,-2.780468,-9.267677,9.906605805,3.041965206,-5.319212656,-7.309800198,9.723761733
41:18.3,1.42E+12,1.4310242,-2.512525,-8.98746,9.441136022,3.038582242,-5.212454656,-7.364897614,9.709572244
41:18.4,1.42E+12,1.097368,-2.4324417,-9.139694,9.521291696,3.024481564,-5.09437121,-7.406118894,9.67831832
41:18.4,1.42E+12,1.1009605,-2.3430777,-9.52634,9.871842833,3.014895496,-4.970946864,-7.452905602,9.650683198
41:18.4,1.42E+12,0.76820254,-2.202819,-9.574839,9.854952489,2.991382393,-4.851902404,-7.50963463,9.632664457
41:18.4,1.42E+12,0.68781966,-2.174977,-8.960815,9.246611612,2.94092532,-4.723307804,-7.52029545,9.568296244
41:18.4,1.42E+12,0.41493714,-2.0318747,-8.818911,9.059463497,2.878726663,-4.580118558,-7.540326796,9.498076487
41:18.5,1.42E+12,-0.22528152,-1.3768369,-8.926388,9.034757016,2.830577786,-4.447039296,-7.582847376,9.463829343
41:18.5,1.42E+12,-0.5005591,-1.0014175,-8.88193,8.95221073,2.782734278,-4.331207166,-7.668675896,9.474592704
41:18.5,1.42E+12,-0.48334488,-0.8015831,-8.705597,8.755773916,2.741105845,-4.239962912,-7.785576808,9.523999139
41:18.5,1.42E+12,-0.46553192,-0.7509883,-8.536748,8.582352231,2.680359166,-4.140255258,-7.862651538,9.538865171
41:18.5,1.42E+12,-0.11032059,-0.49996033,-9.014255,9.028783095,2.622585309,-4.022797513,-7.928646306,9.539453901
41:18.6,1.42E+12,-0.2643503,-0.47316605,-9.558074,9.573429155,2.547696043,-3.90673187,-7.9898211,9.537277103
41:18.6,1.42E+12,-0.37841308,-0.47675857,-9.059011,9.079436959,2.460786769,-3.797204641,-8.0492984,9.531029605
41:18.6,1.42E+12,-0.21195923,-0.53049684,-8.880733,8.899088281,2.380730246,-3.69675453,-8.09767482,9.522503661
41:18.6,1.42E+12,-0.2574646,-0.7008426,-8.738528,8.770367152,2.310214882,-3.596765454,-8.129926746,9.504051168
41:18.6,1.42E+12,-0.001496887,-0.8804691,-9.457334,9.498231123,2.249043091,-3.495201662,-8.179452766,9.500535816
41:18.7,1.42E+12,0.43604323,-1.2998968,-9.648636,9.74556525,2.185727755,-3.399406872,-8.237088916,9.499644492
41:18.7,1.42E+12,0.6059399,-1.273402,-9.503139,9.607203894,2.117580473,-3.310207362,-8.284854596,9.492189584
41:18.7,1.42E+12,0.6538403,-1.0346484,-9.39641,9.475786265,2.055142313,-3.214900556,-8.329467824,9.482462646
41:18.7,1.42E+12,0.7589218,-0.7975415,-9.12712,9.193277666,1.996829577,-3.115749746,-8.371934512,9.47069961
41:18.7,1.42E+12,0.5960605,-0.75458086,-8.49274,8.54700609,1.934774623,-3.004372363,-8.393145418,9.432924883
41:18.8,1.42E+12,0.23650818,-0.64919996,-8.322843,8.351473661,1.867669167,-2.888088174,-8.410871558,9.390212973
41:18.8,1.42E+12,0.2868036,-0.8822653,-8.518336,8.568704486,1.799105747,-2.7867519,-8.431594466,9.356476602
41:18.9,1.42E+12,0.5005591,-0.9633966,-8.629255,8.697283155,1.729201115,-2.700728792,-8.457882786,9.333253585
41:18.9,1.42E+12,0.73078036,-1.2383748,-8.591384,8.710883486,1.66054189,-2.6263335,-8.482835896,9.311664984
41:18.9,1.42E+12,0.7601193,-1.5706837,-8.9039345,9.073305804,1.595547046,-2.555165494,-8.514812406,9.297426109
41:18.9,1.42E+12,0.79200304,-1.9068847,-8.93477,9.170255887,1.540844801,-2.492553696,-8.551719658,9.293133182
41:18.9,1.42E+12,1.0359956,-2.1194427,-9.142239,9.441708435,1.493246779,-2.433732022,-8.591824264,9.294122552
41:18.9,1.42E+12,1.1746074,-2.1248314,-9.209,9.523670092,1.446370261,-2.38068533,-8.628638714,9.295395318
41:18.9,1.42E+12,1.3934523,-2.0082238,-8.837921,9.169706634,1.399775157,-2.330069586,-8.651933264,9.285561302
41:18.9,1.42E+12,1.3587245,-1.8269508,-8.568931,8.866253999,1.354398515,-2.274029122,-8.670764104,9.270258627
41:19.0,1.42E+12,1.8630258,-1.8098863,-8.45397,8.84399018,1.318682785,-2.219641228,-8.691498984,9.258624814
41:19.0,1.42E+12,2.2821543,-1.9061362,-8.569979,9.071169909,1.291972331,-2.168983572,-8.713643936,9.251915455
41:19.0,1.42E+12,2.657424,-2.333198,-8.425828,9.137849458,1.271261401,-2.124094912,-8.724532284,9.237990599
41:19.0,1.42E+12,2.4987538,-2.311643,-8.286768,8.958682258,1.250403777,-2.08442142,-8.732893904,9.224385442
41:19.0,1.42E+12,2.7074199,-2.9234207,-8.226892,9.141020899,1.233812281,-2.062629734,-8.741258504,9.217902143
41:19.1,1.42E+12,2.7644513,-2.9463232,-7.842342,8.821867117,1.217627937,-2.041595476,-8.73817193,9.201775583
41:19.1,1.42E+12,3.0708642,-3.3181498,-7.63652,8.874500704,1.213721061,-2.02711758,-8.73348967,9.190635692
41:19.1,1.42E+12,3.5414855,-3.6610868,-7.7133102,9.243420922,1.219921169,-2.017774008,-8.733351954,9.188863852
41:19.1,1.42E+12,3.53445,-4.105363,-8.004155,9.665031786,1.229417419,-2.020788742,-8.732744214,9.192898203
41:19.2,1.42E+12,3.4540672,-4.6725335,-7.758067,9.692819668,1.240769809,-2.029782044,-8.723277914,9.192930091
41:19.2,1.42E+12,3.382965,-4.800517,-7.8089614,9.770838951,1.256744587,-2.042631316,-8.722981532,9.203761741
41:19.2,1.42E+12,3.570974,-4.7788124,-7.880512,9.883894609,1.285517749,-2.056531414,-8.723403642,9.219236971
41:19.2,1.42E+12,3.5853443,-4.9802933,-7.35271,9.577074681,1.315542315,-2.077703384,-8.711227962,9.228450611
41:19.2,1.42E+12,3.5813026,-5.277575,-7.183412,9.60624454,1.343267657,-2.10984155,-8.682559582,9.228178255
41:19.2,1.42E+12,3.7693117,-5.501959,-7.4155793,9.973468799,1.376860803,-2.158214966,-8.662564168,9.243591729
41:19.3,1.42E+12,3.8736448,-6.0372453,-7.3158865,10.24576255,1.419737643,-2.221907512,-8.642562758,9.269303422
41:19.3,1.42E+12,3.7058437,-6.0052123,-7.0513864,9.975866,1.450384911,-2.291111604,-8.604329266,9.277470233
41:19.3,1.42E+12,3.59702,-6.115832,-6.9341803,9.920927898,1.469769603,-2.35812425,-8.554429032,9.272456987
41:19.3,1.42E+12,3.3482373,-6.1761565,-7.078181,9.972775361,1.494213769,-2.42603802,-8.510639112,9.273780378
41:19.3,1.42E+12,3.0991552,-6.0829005,-6.81413,9.645662709,1.527576389,-2.49744553,-8.467172512,9.277870912
41:19.4,1.42E+12,3.1966026,-6.323151,-7.1441936,10.06180943,1.569561081,-2.575259716,-8.427262504,9.288681266
41:19.4,1.42E+12,3.134482,-6.4843655,-6.6524663,9.804452112,1.610231511,-2.658085472,-8.36978503,9.287333452
41:19.4,1.42E+12,3.3539255,-6.688242,-6.5223866,9.925871461,1.66194597,-2.747793932,-8.308735982,9.288751831
41:19.4,1.42E+12,3.5362463,-7.177574,-6.3459034,10.21239915,1.718914503,-2.847845872,-8.25643775,9.308067582
41:19.4,1.42E+12,3.5545084,-8.067923,-6.2516,10.80779413,1.781705928,-2.968566838,-8.20509153,9.343034195
41:19.5,1.42E+12,3.6148329,-8.266859,-6.395151,11.05920119,1.858508216,-3.10636728,-8.15446679,9.383523078
41:19.5,1.42E+12,3.2064822,-8.343948,-6.611601,11.11828512,1.932649042,-3.25321789,-8.10906021,9.426844566
41:19.5,1.42E+12,2.482737,-7.509434,-6.468948,10.21777227,1.99197068,-3.387374908,-8.06432723,9.456084533
41:19.5,1.42E+12,2.2667363,-7.3462734,-6.4417043,10.03002396,2.046616044,-3.51928061,-8.022426356,9.485037968
41:19.5,1.42E+12,2.1209395,-7.024742,-5.9148,9.424979765,2.091241246,-3.649776244,-7.960437256,9.492961901
41:19.6,1.42E+12,2.0291803,-6.877149,-5.6603293,9.135210936,2.137111858,-3.777855903,-7.882482362,9.484197537
41:19.6,1.42E+12,2.251468,-6.8446665,-5.566774,9.105357786,2.18970948,-3.905214061,-7.812637622,9.484715953
41:19.6,1.42E+12,2.387086,-6.9365754,-5.883066,9.403442104,2.241690384,-4.033335632,-7.752684282,9.49480303
41:19.6,1.42E+12,2.4819887,-7.3449264,-6.4816713,10.10545766,2.29647945,-4.166217308,-7.707547148,9.52150484
41:19.6,1.42E+12,2.6797276,-7.8348575,-6.935827,10.80146417,2.35010394,-4.305305076,-7.657117008,9.547569501
41:19.7,1.42E+12,2.657424,-7.80941,-7.249724,10.98213481,2.394531556,-4.43549534,-7.609138768,9.572300892
41:19.7,1.42E+12,2.6560767,-7.7351646,-7.1885014,10.888621,2.435534292,-4.564730592,-7.562846016,9.597929234
41:19.7,1.42E+12,2.6596692,-7.888446,-7.040609,10.90282512,2.47565087,-4.701806544,-7.515729996,9.626470011
41:19.7,1.42E+12,2.5206084,-7.817793,-6.9630704,10.768273,2.510884602,-4.842211574,-7.472449004,9.657969918
41:19.7,1.42E+12,2.44292,-7.4684196,-6.7093477,10.33249708,2.547821792,-4.976488349,-7.436781158,9.693679738
41:19.8,1.42E+12,2.1513262,-7.428752,-6.644383,10.19619469,2.586118152,-5.11207939,-7.403211958,9.730574158
41:19.8,1.42E+12,2.1486318,-7.2817574,-6.7334476,10.14790254,2.623354716,-5.240069232,-7.36751419,9.76215812
41:19.8,1.42E+12,2.4026537,-7.1404514,-6.5460377,9.98045092,2.661396608,-5.363610328,-7.325849844,9.787821475
41:19.8,1.42E+12,2.5503964,-7.098239,-6.6027694,10.02427466,2.697788929,-5.480807612,-7.286077552,9.814089298
41:19.8,1.42E+12,2.6412575,-7.3087015,-7.0344715,10.48223011,2.735411693,-5.595567968,-7.248688292,9.842267784
41:19.9,1.42E+12,2.868485,-7.143445,-6.8214645,10.28539696,2.776941332,-5.700299174,-7.206422182,9.864570606
41:19.9,1.42E+12,2.8006759,-6.7105455,-6.4899044,9.746489908,2.812234938,-5.79212123,-7.15337549,9.870666235
41:19.9,1.42E+12,3.1635215,-6.7585955,-6.4021864,9.832317739,2.85201322,-5.884796512,-7.097239218,9.876839188
41:19.9,1.42E+12,3.4019756,-6.7855396,-6.491401,9.987756134,2.892183686,-5.980342828,-7.050308818,9.893200178
41:19.9,1.42E+12,3.4232314,-6.6301627,-6.676117,10.01239776,2.933473824,-6.076407066,-7.012452538,9.916123053
41:20.0,1.42E+12,3.674858,-6.6523166,-6.783444,10.18690385,2.969710468,-6.173255672,-6.979042018,9.942981327
41:20.0,1.42E+12,3.8347256,-6.3539867,-6.6734223,9.980622857,3.000761894,-6.262212682,-6.941110884,9.961170386
41:20.0,1.42E+12,3.8685553,-6.15041,-6.7159343,9.894293143,3.02498452,-6.338556922,-6.90691301,9.97629926
41:20.0,1.42E+12,3.5100508,-6.620882,-6.506819,9.924476237,3.04521046,-6.424741702,-6.87131403,9.995615139
41:20.0,1.42E+12,3.4862504,-6.4879584,-6.6460295,9.92054707,3.06078707,-6.496032456,-6.83969678,10.01120566
41:20.1,1.42E+12,3.482059,-6.4830184,-6.831494,10.0410942,3.075139224,-6.56676636,-6.81947982,10.0355902
41:20.1,1.42E+12,3.5592985,-5.9522223,-7.1870046,9.987521777,3.08490791,-6.61944781,-6.810489512,10.05785063
41:20.1,1.42E+12,3.4735267,-5.513634,-7.347321,9.820828555,3.083548734,-6.656498754,-6.803169728,10.06939878
41:20.1,1.42E+12,3.2102244,-5.5097423,-7.256011,9.659839364,3.077064222,-6.68458634,-6.788206848,10.06929493
41:20.3,1.42E+12,3.2700999,-5.4956717,-7.2278695,9.650806096,3.073384876,-6.701049104,-6.777602898,10.06845466
41:20.3,1.42E+12,3.2832725,-5.4645367,-7.410789,9.775522148,3.071391026,-6.714329498,-6.76963945,10.06854832
41:20.3,1.42E+12,3.2509396,-5.393584,-7.354955,9.682702087,3.064990338,-6.72662493,-6.75912831,10.06452447
41:20.3,1.42E+12,3.2442036,-5.172494,-7.5663157,9.722586305,3.058167524,-6.730468944,-6.763400424,10.0674347
41:20.3,1.42E+12,3.2115715,-4.926555,-7.493118,9.525332174,3.050772902,-6.723448544,-6.769594544,10.06581646
41:20.3,1.42E+12,3.4943335,-4.796775,-7.688312,9.712340522,3.045273338,-6.709344864,-6.775049198,10.06059389
41:20.3,1.42E+12,3.520529,-4.9620314,-8.133785,10.15747697,3.038211022,-6.687840586,-6.791407168,10.05882818
41:20.3,1.42E+12,2.9219239,-4.455934,-8.329878,9.888369663,3.022532626,-6.65685502,-6.816977,10.05707825
41:20.3,1.42E+12,2.5984466,-3.7637732,-8.505163,9.656899662,3.002561158,-6.609813844,-6.848396654,10.05179769
41:20.3,1.42E+12,2.2887406,-3.0952635,-8.389005,9.230080962,2.981371224,-6.548195984,-6.874613134,10.0369438
41:20.3,1.42E+12,1.9103274,-2.930606,-8.0305,8.75937969,2.957594668,-6.485150094,-6.898940534,10.01921814
41:20.4,1.42E+12,1.6473243,-2.494413,-8.443492,8.957026891,2.926609102,-6.408575334,-6.924926502,9.997122489
41:20.4,1.42E+12,1.5141014,-2.5265958,-8.559201,9.051856779,2.89420149,-6.32941994,-6.963061196,9.982070583
41:20.4,1.42E+12,1.5840061,-2.262994,-8.4978285,8.935508177,2.858803102,-6.24091498,-7.002570034,9.962263317
41:20.4,1.42E+12,1.5182927,-2.1168978,-8.524473,8.913647342,2.81844403,-6.139701456,-7.046141426,9.936288281
41:20.4,1.42E+12,2.0137625,-2.0417542,-8.829539,9.283574666,2.787629112,-6.01917808,-7.097700206,9.905803892
41:20.5,1.42E+12,2.0176542,-1.7833915,-8.598269,9.010085655,2.755685538,-5.88950873,-7.141762566,9.864821581
41:20.5,1.42E+12,1.9886147,-1.5643969,-8.618927,8.982640409,2.731328188,-5.753917708,-7.181909086,9.822108687
41:20.5,1.42E+12,1.7236656,-1.4521303,-8.609945,8.900048225,2.71614676,-5.632771634,-7.224729026,9.795754206
41:20.5,1.42E+12,1.3922548,-1.4910493,-8.524922,8.765608738,2.69865713,-5.515667152,-7.26639338,9.770465901
41:20.6,1.42E+12,0.7575746,-1.4940431,-8.614885,8.77623653,2.671389832,-5.405053174,-7.32039508,9.757491037
41:20.6,1.42E+12,0.4272116,-1.6178356,-8.693921,8.853483164,2.639350458,-5.299866906,-7.381066914,9.751856481
41:20.6,1.42E+12,0.42781037,-1.5302678,-9.104218,9.241835675,2.602877305,-5.193578932,-7.451815794,9.754586039
41:20.6,1.42E+12,0.43185195,-1.0240206,-9.224717,9.291421744,2.563772624,-5.075327836,-7.518648814,9.752345632
41:20.6,1.42E+12,0.25791368,-0.33485368,-9.280401,9.290020946,2.519291124,-4.935126382,-7.574623408,9.736036897
41:20.6,1.42E+12,0.3143463,0.20207977,-8.823102,8.831012328,2.471983498,-4.774387636,-7.612368908,9.696627861
41:20.7,1.42E+12,0.00119751,0.37077895,-8.322244,8.330499604,2.418858968,-4.610783857,-7.633819308,9.643595157
41:20.7,1.42E+12,-0.30491593,0.19609222,-8.380323,8.388160672,2.359639116,-4.452158721,-7.65765574,9.59358595
41:20.7,1.42E+12,-0.20911515,0.011376343,-8.824,8.826484836,2.302263429,-4.294162274,-7.69332356,9.552059144
41:20.7,1.42E+12,0.1592688,0.043858796,-8.618478,8.620061089,2.255036637,-4.136929238,-7.726431712,9.509094906
41:20.7,1.42E+12,0.0398172,-0.6012996,-8.251441,8.273416779,2.206974581,-3.999586838,-7.757273578,9.4679133
41:20.8,1.42E+12,0.039068755,-0.75278455,-8.374335,8.408192293,2.164729432,-3.866067489,-7.791872618,9.432153252
41:20.8,1.42E+12,0.39323226,-1.2677138,-8.864117,8.96294037,2.129621441,-3.745786617,-7.834486006,9.408454009
41:20.8,1.42E+12,0.7023395,-1.1641291,-8.7841835,8.88877703,2.095615157,-3.626260171,-7.879248922,9.386620531
41:20.8,1.42E+12,0.86759585,-0.67075515,-8.632848,8.702223832,2.061959146,-3.497710494,-7.919850494,9.360179514
41:20.9,1.42E+12,0.81415695,-0.71730834,-8.519383,8.588205255,2.025417135,-3.365882631,-7.949548724,9.322299017
41:20.9,1.42E+12,0.7791298,-0.642464,-8.176447,8.238573225,1.983630031,-3.235863011,-7.976648374,9.281362543
41:20.9,1.42E+12,0.8985814,-0.9542656,-8.104596,8.209905462,1.945588141,-3.120737413,-8.008942206,9.250630854
41:20.9,1.42E+12,1.0048604,-0.8425978,-8.116871,8.222123224,1.902414919,-3.002417459,-8.043235898,9.218426963
41:20.9,1.42E+12,1.0927277,-0.9503737,-8.742869,8.861998778,1.856229961,-2.885714141,-8.088265258,9.195911816
41:20.9,1.42E+12,1.6319064,-1.3855188,-9.251811,9.496251241,1.820403461,-2.780821263,-8.139779138,9.185588886
41:21.0,1.42E+12,2.0315752,-1.7848883,-8.709788,9.11995236,1.787537805,-2.683472697,-8.178306018,9.164249856
41:21.0,1.42E+12,2.0428019,-2.1330643,-8.298443,8.808357346,1.751699331,-2.599054249,-8.210806432,9.140804546
41:21.0,1.42E+12,2.4993525,-2.5099804,-8.055348,8.799738401,1.724315275,-2.526245657,-8.237594706,9.118913451
41:21.0,1.42E+12,2.9026139,-2.9948223,-8.307125,9.295292025,1.712166537,-2.453724463,-8.273600826,9.106329767
41:21.0,1.42E+12,2.8624973,-3.270998,-8.646171,9.677271913,1.699691475,-2.389385255,-8.313603656,9.101464264
41:21.1,1.42E+12,2.8877947,-3.5221756,-8.912167,10.0085863,1.687806189,-2.330168399,-8.355217116,9.100814106
41:21.1,1.42E+12,3.0686188,-3.7332368,-8.363258,9.659066348,1.677992595,-2.285788689,-8.378742184,9.094244997
41:21.1,1.42E+12,3.0722113,-4.0631504,-7.3994126,8.983261116,1.669966287,-2.256779017,-8.379784016,9.077493648
41:21.2,1.42E+12,3.0740075,-4.15012,-6.5623536,8.350898329,1.667241949,-2.229586571,-8.365910868,9.051314828
41:21.2,1.42E+12,3.0719118,-4.3646235,-6.342311,8.289239363,1.663278187,-2.206965607,-8.348199698,9.024083493
41:21.2,1.42E+12,3.5863922,-4.386628,-6.532416,8.647379546,1.669340581,-2.185407433,-8.330632238,9.001520641
41:21.2,1.42E+12,3.4724789,-4.8783555,-7.2549634,9.406963167,1.673771367,-2.175102863,-8.328632406,8.996005862
41:21.2,1.42E+12,3.626808,-5.5456676,-7.696545,10.15603123,1.681423455,-2.182566335,-8.331236992,9.004674761
41:21.2,1.42E+12,3.6893778,-5.8951907,-7.6751394,10.3572461,1.690979581,-2.201939049,-8.33487742,9.021313039
41:21.2,1.42E+12,3.7269497,-6.136489,-7.7775264,10.58473279,1.695631905,-2.228733329,-8.336661708,9.038760885
41:21.3,1.42E+12,3.7145257,-6.3363237,-8.370893,11.13636156,1.699511839,-2.256219175,-8.341403868,9.058338577
41:21.3,1.42E+12,3.4625995,-6.709647,-7.627239,10.73236847,1.710325351,-2.301293435,-8.327351088,9.075218553
41:21.3,1.42E+12,3.521577,-7.0311785,-6.8064957,10.40035381,1.728787959,-2.366641541,-8.293377742,9.090087636
41:21.3,1.42E+12,3.6327956,-7.435937,-6.8582883,10.74832458,1.755669059,-2.453455011,-8.262763408,9.120452508
41:21.3,1.42E+12,3.6534526,-7.392527,-6.681206,10.61299604,1.790531563,-2.542693431,-8.235777528,9.157524835
41:21.4,1.42E+12,3.940256,-7.426357,-6.828051,10.83045133,1.836390197,-2.641332311,-8.203468708,9.194993324
41:21.4,1.42E+12,3.865861,-7.268435,-6.5889983,10.54466345,1.883425389,-2.736169095,-8.164064654,9.224849457
41:21.4,1.42E+12,3.5122962,-7.008875,-6.2674665,10.03701598,1.921991191,-2.831086715,-8.119457414,9.246879613
41:21.4,1.42E+12,3.1726525,-6.4925985,-6.2623773,9.562265872,1.955078387,-2.918600729,-8.0742155,9.259851984
41:21.5,1.42E+12,2.9858408,-6.799011,-6.5431933,9.897230644,1.974519953,-3.013745865,-8.028488586,9.272125103
41:21.5,1.42E+12,2.805466,-6.8368826,-6.5449896,9.871701577,1.990276189,-3.114815687,-7.987422998,9.289357422
41:21.5,1.42E+12,2.5575814,-6.9178643,-6.921906,10.11488269,2.001655523,-3.221885035,-7.953482578,9.312002268
41:21.5,1.42E+12,2.7422974,-7.215146,-6.6984205,10.21994932,2.022028159,-3.337145349,-7.915252088,9.338400289
41:21.5,1.42E+12,2.6584716,-7.3000197,-5.7842717,9.685843173,2.047352495,-3.453324757,-7.860439082,9.356804978
41:21.5,1.42E+12,2.8981233,-7.556586,-5.416636,9.738637286,2.090163469,-3.574575615,-7.796474102,9.376052993
41:21.6,1.42E+12,2.858456,-7.5961037,-5.821993,9.988351446,2.138788357,-3.694140977,-7.739035542,9.398750359
41:21.6,1.42E+12,3.1783407,-7.7047777,-6.643784,10.6585794,2.193798964,-3.817631175,-7.689826862,9.427085233
41:21.6,1.42E+12,2.9198282,-7.5184155,-7.470216,10.99345694,2.243558489,-3.947519073,-7.654736842,9.461125937
41:21.6,1.42E+12,3.1491513,-7.339388,-7.666158,11.07039966,2.301383241,-4.087609759,-7.622451982,9.496733512
41:21.6,1.42E+12,3.1482532,-7.154073,-7.4434214,10.79336745,2.358061379,-4.234732815,-7.59485837,9.535980614
41:21.7,1.42E+12,3.0091925,-6.968609,-6.9061885,10.2621728,2.418221279,-4.381520574,-7.56653726,9.574614078
41:21.7,1.42E+12,2.3625371,-6.577023,-6.28992,9.402228815,2.471570339,-4.516982878,-7.5247292,9.594895441
41:21.7,1.42E+12,2.210154,-6.3176126,-6.3536873,9.22856175,2.519955722,-4.643562657,-7.475322946,9.602936979
41:21.7,1.42E+12,2.264042,-6.349197,-6.6672854,9.481080283,2.562051186,-4.771423773,-7.436299094,9.620157363
41:21.7,1.42E+12,2.5572822,-6.4936466,-7.167395,10.0039337,2.612400486,-4.889270713,-7.414618174,9.654767701
41:21.8,1.42E+12,3.0054502,-6.9087334,-7.204219,10.42420738,2.671728115,-5.01238969,-7.391215854,9.695088003
41:21.8,1.42E+12,3.6345918,-7.2938824,-7.133865,10.83065131,2.736555306,-5.132913062,-7.356610814,9.732442222
41:21.8,1.42E+12,3.5751655,-7.5199122,-6.437214,10.52466683,2.794011826,-5.260028724,-7.309671424,9.765160018
41:21.8,1.42E+12,3.3331187,-6.8382297,-5.595963,9.443826957,2.843322283,-5.383378215,-7.248933724,9.77999208
41:21.8,1.42E+12,3.4230816,-6.7779055,-5.589826,9.428872961,2.895500776,-5.504590158,-7.190342584,9.796805435
41:21.9,1.42E+12,3.3992813,-6.9311867,-5.935158,9.73768776,2.947903806,-5.630364612,-7.145516804,9.826787725
41:21.9,1.42E+12,3.6327956,-6.5792685,-6.421646,9.885419324,3.00258809,-5.74286467,-7.111857804,9.860298003
41:21.9,1.42E+12,4.2311015,-6.469846,-7.1721854,10.54520605,3.067112912,-5.855409634,-7.092964092,9.906759659
41:21.9,1.42E+12,4.013454,-6.108497,-7.4154296,10.41201925,3.125527438,-5.9585721,-7.066415304,9.937760068
41:21.9,1.42E+12,3.7582347,-5.857619,-7.4660244,10.20674036,3.168054004,-6.048014104,-7.030699572,9.951969851
41:22.0,1.42E+12,3.4362543,-6.087541,-6.9922595,9.887248958,3.196147586,-6.134067158,-6.996349002,9.967315783
41:22.0,1.42E+12,3.2745905,-6.009403,-6.942563,9.748592122,3.220783358,-6.211593932,-6.969231402,9.986120478
41:22.0,1.42E+12,3.247796,-5.6875725,-7.279213,9.792017244,3.235752228,-6.275145774,-6.953708702,10.00596606
41:22.0,1.42E+12,3.3259337,-5.4404364,-7.3119946,9.701827056,3.244218624,-6.324058056,-6.933806094,10.01409676
41:22.0,1.42E+12,3.3608112,-5.3658915,-7.3980656,9.737516015,3.254184902,-6.365955926,-6.908843986,10.01530164
41:22.1,1.42E+12,3.3250356,-5.4784575,-6.7398844,9.300290321,3.26292972,-6.405081564,-6.865398334,10.00113572
41:22.1,1.42E+12,3.4301171,-5.099745,-6.4176044,8.885873543,3.270159686,-6.432411728,-6.826485262,9.985671862
41:22.2,1.42E+12,3.5103502,-4.995262,-6.947952,9.249283106,3.278922464,-6.45105396,-6.81745605,9.990992302
41:22.2,1.42E+12,3.6312988,-4.872218,-7.6032887,9.73318233,3.29006829,-6.46549592,-6.838274752,10.01863798
41:22.2,1.42E+12,3.8446052,-4.9879274,-7.871531,10.08074448,3.305522158,-6.477961998,-6.868859152,10.05446808
41:22.2,1.42E+12,3.6357894,-4.854106,-8.582104,10.50874963,3.306510102,-6.487311558,-6.909852912,10.09169549
41:22.2,1.42E+12,3.5756145,-4.600982,-8.90588,10.64277938,3.308572814,-6.481764088,-6.942871244,10.11641181
41:22.2,1.42E+12,3.0557456,-4.3819876,-8.973989,10.44374813,3.297151566,-6.458490488,-6.968420124,10.12216615
41:22.2,1.42E+12,2.9053085,-4.073629,-8.542885,9.900310845,3.28147018,-6.422059254,-6.985775036,10.11302744
41:22.2,1.42E+12,2.4454646,-3.5871406,-8.257578,9.329280209,3.255840478,-6.371072286,-6.995376068,10.08791839
41:22.3,1.42E+12,1.9833755,-2.9424312,-8.35293,9.075412901,3.221217474,-6.303194436,-6.995016808,10.04669942
41:22.3,1.42E+12,1.8269508,-2.6894572,-8.301288,8.915285285,3.1885045,-6.22279064,-7.008497788,10.01035775
41:22.3,1.42E+12,1.5172448,-2.2963746,-8.2936535,8.738424141,3.148417856,-6.128094562,-7.038240944,9.977119161
41:22.3,1.42E+12,1.0095007,-1.8642234,-8.602012,8.859403535,3.095951958,-6.01666029,-7.073115418,9.93934074
41:22.3,1.42E+12,0.6146219,-1.9859203,-8.612491,8.859832997,3.035175344,-5.908528156,-7.111741118,9.90427748
41:22.4,1.42E+12,0.65997756,-1.5078145,-8.697214,8.851587785,2.969569775,-5.790157306,-7.149124378,9.864700209
41:22.4,1.42E+12,0.72239774,-1.0020163,-8.844956,8.930797378,2.90670051,-5.664828932,-7.194243532,9.832422887
41:22.5,1.42E+12,0.624651,-0.739612,-8.408315,8.463862943,2.848947606,-5.539443672,-7.237060502,9.800959826
41:22.5,1.42E+12,0.15328126,-0.53079623,-8.1989,8.217493596,2.788560181,-5.420207627,-7.275790956,9.774064381
41:22.5,1.42E+12,0.47690827,-0.5249584,-8.470137,8.499779034,2.738381531,-5.294726575,-7.31432983,9.746115349
41:22.5,1.42E+12,0.560734,-0.52091676,-8.210277,8.245873229,2.693486891,-5.168407258,-7.347635578,9.713598782
41:22.5,1.42E+12,0.5134323,0.044756927,-8.226743,8.242870635,2.652603909,-5.029154833,-7.373732318,9.676158541
41:22.5,1.42E+12,0.14819184,0.36269578,-8.072264,8.081766833,2.600721797,-4.877597998,-7.401209188,9.633394891
41:22.5,1.42E+12,-0.24234603,0.43439665,-8.422834,8.437509386,2.542705445,-4.722909671,-7.453980434,9.608428215
41:22.5,1.42E+12,-0.09310638,0.17259109,-8.757389,8.759584384,2.482880851,-4.568326129,-7.520795494,9.588847157
41:22.6,1.42E+12,0.30701157,0.052241363,-9.241034,9.246280044,2.431851963,-4.415359228,-7.589176314,9.574005729
41:22.6,1.42E+12,0.585732,-0.3876938,-9.18924,9.216046888,2.379999789,-4.26901755,-7.640085434,9.545155079
41:22.6,1.42E+12,0.7006929,-0.55235136,-9.186097,9.229325038,2.335617083,-4.129696267,-7.674403054,9.509872441
41:22.6,1.42E+12,1.129102,-0.9020242,-9.34836,9.459405567,2.295216097,-4.000948991,-7.708047094,9.477652559
41:22.6,1.42E+12,1.3048366,-1.1913725,-9.120833,9.290401584,2.258347765,-3.881694981,-7.741595326,9.447593242
41:22.7,1.42E+12,1.397943,-1.19736,-8.767268,8.958398506,2.226122775,-3.766270001,-7.778816916,9.421517756
41:22.7,1.42E+12,1.5021263,-1.4060261,-8.500224,8.745690417,2.208914559,-3.662850063,-7.823022996,9.408386988
41:22.7,1.42E+12,1.2765454,-1.3789325,-8.146659,8.360566719,2.190242387,-3.564076461,-7.85888243,9.391027087
41:22.8,1.42E+12,1.4130615,-1.3704002,-7.835456,8.078930018,2.173222777,-3.464500525,-7.882245842,9.362984082
41:22.8,1.42E+12,1.99086,-1.6844472,-7.6034384,8.038231237,2.161894333,-3.368316537,-7.89096671,9.323670033
41:22.8,1.42E+12,2.0589683,-1.9130218,-7.7419004,8.236262785,2.142964695,-3.268402305,-7.901720338,9.279911141
41:22.8,1.42E+12,2.650688,-2.7159522,-7.959548,8.817989997,2.123286619,-3.176843701,-7.918233998,9.239657914
41:22.8,1.42E+12,3.2398627,-3.3838632,-8.10759,9.363773603,2.116580563,-3.094122721,-7.951641518,9.21644005
41:22.8,1.42E+12,3.7477565,-3.9761815,-8.195457,9.849934697,2.124873319,-3.036881757,-8.003631398,9.224562205
41:22.8,1.42E+12,3.882626,-4.6455894,-8.43481,10.3827889,2.134064207,-2.994235435,-8.060531078,9.243640524
41:22.9,1.42E+12,4.1749682,-5.2706895,-8.2285385,10.62635277,2.149577945,-2.961025491,-8.106398688,9.261413824
41:22.9,1.42E+12,4.036506,-5.7526875,-8.192164,10.79343991,2.157652153,-2.944493871,-8.141809048,9.279574235
41:22.9,1.42E+12,4.1074586,-6.0861936,-8.270002,11.05919987,2.155179295,-2.936820823,-8.16376538,9.289854112
41:22.9,1.42E+12,3.611839,-6.3261447,-7.832013,10.69607009,2.147146995,-2.941173777,-8.172097048,9.295535129
41:22.9,1.42E+12,3.8365219,-6.2704606,-7.765252,10.69283475,2.148712739,-2.949430609,-8.1780816,9.305257016
41:23.0,1.42E+12,3.9204972,-6.3210554,-7.992629,10.91824885,2.158397597,-2.954100897,-8.19808899,9.325877014
41:23.0,1.42E+12,3.7492533,-6.332282,-7.40555,10.44015644,2.167890853,-2.960558477,-8.20734873,9.339708301
41:23.0,1.42E+12,3.905229,-6.5378046,-7.121291,10.42624036,2.181039513,-2.977563119,-8.20419029,9.352392763
41:23.0,1.42E+12,3.8255947,-6.790479,-7.2323604,10.63262982,2.191032733,-3.004563971,-8.202597606,9.371008818
41:23.0,1.42E+12,3.9383101,-7.2395453,-7.0768337,10.86291295,2.202582711,-3.042037047,-8.196172968,9.393516757
41:23.1,1.42E+12,3.7408707,-7.188052,-7.0590205,10.74671929,2.210899413,-3.076228937,-8.20255569,9.422445336
41:23.1,1.42E+12,3.4983752,-7.3585477,-7.0840187,10.79676684,2.212264575,-3.121404991,-8.215883976,9.460663202
41:23.1,1.42E+12,3.05844,-7.726782,-6.845415,10.76647212,2.203226371,-3.176035391,-8.213833236,9.491006983
41:23.1,1.42E+12,2.8364515,-7.445667,-6.2983027,10.15637884,2.187329425,-3.227504371,-8.187733516,9.499470913
41:23.1,1.42E+12,2.650688,-7.273824,-5.846542,9.701377006,2.163451081,-3.273222303,-8.147233736,9.491883563
41:23.2,1.42E+12,2.4730074,-7.470814,-5.729336,9.734172714,2.140195441,-3.325556463,-8.090178376,9.476392025
41:23.2,1.42E+12,2.395768,-7.45839,-5.845195,9.77412862,2.116598511,-3.382704623,-8.028964676,9.45901901
41:23.2,1.42E+12,2.523153,-7.6453514,-6.1035576,10.10302502,2.105946659,-3.447971899,-7.971556048,9.452204548
41:23.2,1.42E+12,2.9265642,-8.1248045,-6.7445245,10.95745577,2.106371773,-3.528995409,-7.935588838,9.473347446
41:23.2,1.42E+12,2.9759614,-8.118218,-7.505243,11.44947519,2.116981709,-3.619616957,-7.920542138,9.515751346
41:23.3,1.42E+12,3.286266,-7.8736267,-8.016879,11.70742886,2.143039519,-3.718240867,-7.913821118,9.568391665
41:23.3,1.42E+12,3.541635,-7.622898,-8.069869,11.65223318,2.177333203,-3.816909683,-7.909192738,9.623130623
41:23.3,1.42E+12,3.3534765,-7.439829,-7.4874296,11.07512809,2.214057837,-3.919778771,-7.89306826,9.669864702
41:23.3,1.42E+12,3.1395712,-7.086264,-7.1500316,10.54490383,2.256659247,-4.024219583,-7.864028652,9.703574708
41:23.3,1.42E+12,2.9482691,-6.795269,-7.0215983,10.20641044,2.303332191,-4.120406557,-7.832210798,9.730506256
41:23.4,1.42E+12,2.5915608,-6.7460217,-6.926546,10.01009669,2.341963855,-4.225170701,-7.796797438,9.753676435
41:23.4,1.42E+12,2.4563918,-6.88643,-6.9557357,10.09153298,2.376643737,-4.342858975,-7.759013032,9.776891147
41:23.5,1.42E+12,2.7470875,-7.1515284,-6.7562003,10.21455289,2.419092467,-4.471097303,-7.725970738,9.811904946
41:23.5,1.42E+12,2.8196864,-7.125183,-6.3665605,9.96252763,2.472420569,-4.602985038,-7.689323948,9.846805626
41:23.5,1.42E+12,3.5351985,-7.176377,-6.5969315,10.36906556,2.533586374,-4.73601341,-7.651859838,9.884191357
41:23.5,1.42E+12,4.037404,-6.9392695,-7.1042266,10.72026715,2.603119774,-4.864380465,-7.62973883,9.933679235
41:23.5,1.42E+12,4.2296047,-6.423143,-7.0018396,10.40058074,2.677443222,-4.993738464,-7.605240762,9.976833437
41:23.5,1.42E+12,4.296216,-6.36222,-6.731053,10.20991625,2.760403705,-5.128236779,-7.578416542,10.01939643
41:23.5,1.42E+12,4.2822948,-6.469846,-6.5807652,10.17366338,2.850896522,-5.266321632,-7.541575166,10.05411951
41:23.5,1.42E+12,4.548142,-6.1941195,-6.389463,9.99389561,2.943721489,-5.393655844,-7.494216646,10.07880573
41:23.6,1.42E+12,4.6177473,-5.9335113,-6.6783624,10.05637464,3.029936204,-5.513370897,-7.442963214,10.09500762
41:23.6,1.42E+12,4.3541455,-5.6733522,-7.062314,10.05095952,3.105304474,-5.619084065,-7.400424694,10.11170587
41:23.6,1.42E+12,4.071084,-5.5386324,-6.926696,9.75854965,3.172712296,-5.718809686,-7.355236674,10.12229037
41:23.6,1.42E+12,3.9790256,-5.0835786,-6.887627,9.440064714,3.229710768,-5.802440774,-7.306022014,10.12190355
41:23.6,1.42E+12,4.172723,-4.9781976,-7.305558,9.775747862,3.287068496,-5.878177276,-7.269716514,10.13161048
41:23.7,1.42E+12,4.358337,-4.79453,-7.3152876,9.772208143,3.346276376,-5.950120676,-7.240676906,10.14788667
41:23.7,1.42E+12,3.9674995,-4.7157936,-6.837781,9.205162169,3.39558384,-6.016316026,-7.207428046,10.1570761
41:23.8,1.42E+12,3.8709502,-4.679419,-6.7153354,9.054112169,3.447471936,-6.082325756,-7.178801574,10.17094701
41:23.8,1.42E+12,4.0040236,-4.7969246,-7.5658665,9.812493389,3.499291178,-6.150856244,-7.173409784,10.20561828
41:23.8,1.42E+12,4.0156994,-4.9681687,-7.8026743,10.08415927,3.539787966,-6.216530674,-7.177394502,10.24653684
41:23.8,1.42E+12,3.580704,-4.7427373,-7.9177847,9.899813775,3.57022268,-6.273124984,-7.180912188,10.27980786
41:23.8,1.42E+12,3.3880546,-4.6690907,-7.762857,9.671673627,3.584970012,-6.312187754,-7.176978368,10.29688153
41:23.8,1.42E+12,3.3133597,-4.5165577,-7.9064083,9.689630445,3.586439952,-6.334841644,-7.172954734,10.30339867
41:23.8,1.42E+12,3.2097752,-4.4652147,-8.259375,9.922604222,3.575680326,-6.344622308,-7.174233094,10.30485206
41:23.8,1.42E+12,2.870431,-4.084706,-8.239166,9.633693664,3.555436426,-6.33340464,-7.170320214,10.28987016
41:23.9,1.42E+12,2.4343877,-3.4572108,-8.210127,9.234973489,3.520624816,-6.297135066,-7.169951984,10.26204257
41:23.9,1.42E+12,2.5264463,-2.9335995,-8.172106,9.042801193,3.490423622,-6.240753306,-7.169550824,10.2270298
41:23.9,1.42E+12,2.7143056,-2.8214827,-8.899743,9.722841405,3.462560562,-6.175459088,-7.182145644,10.20030263
41:23.9,1.42E+12,2.124532,-2.5926087,-8.33362,8.982453918,3.432814422,-6.100788368,-7.192177784,10.1660303
41:23.9,1.42E+12,1.8776953,-2.4456143,-7.9891863,8.563519526,3.39363789,-6.024291442,-7.19665647,10.123444
41:24.0,1.42E+12,1.9898121,-2.0853136,-8.306526,8.792397807,3.355024188,-5.939576606,-7.20293441,10.08092698
41:24.0,1.42E+12,1.8077906,-2.1089644,-8.551567,8.99139232,3.316194934,-5.855110254,-7.22585475,10.05195169
41:24.0,1.42E+12,1.9562819,-1.9600241,-8.604108,9.038772473,3.277215992,-5.763554644,-7.25551109,10.02420234
41:24.0,1.42E+12,1.961521,-1.780697,-8.40113,8.808940442,3.239934518,-5.663359004,-7.278886482,9.987728549
41:24.1,1.42E+12,1.7817448,-1.5194902,-8.419392,8.738971716,3.196803212,-5.548957902,-7.305737648,9.945249725
41:24.1,1.42E+12,1.5332615,-1.0566527,-8.410261,8.613936141,3.152651028,-5.426329916,-7.332762458,9.902594062
41:24.1,1.42E+12,0.6465056,-0.71880525,-7.515721,7.577645586,3.095613636,-5.293535067,-7.341396504,9.838211637
41:24.1,1.42E+12,0.52226394,-0.8107141,-8.917706,8.96969884,3.044890115,-5.155213709,-7.382842324,9.802276171
41:24.1,1.42E+12,0.18785934,-0.9375005,-8.5601,8.613333288,2.991918272,-5.025050379,-7.42807827,9.77141526
41:24.1,1.42E+12,0.76820254,-0.51403105,-9.251062,9.297123813,2.954268562,-4.88985452,-7.49616867,9.763330196
41:24.2,1.42E+12,0.63393176,-0.25432113,-8.739277,8.765928998,2.91748705,-4.745524663,-7.55636749,9.743965322
41:24.2,1.42E+12,0.9392967,-0.31539413,-9.096583,9.150386551,2.888357624,-4.602664745,-7.62139525,9.731490481
41:24.2,1.42E+12,0.84199905,-0.674198,-9.096583,9.160312638,2.854734545,-4.463241677,-7.681255758,9.712636233
41:24.2,1.42E+12,0.97432387,-0.9105565,-9.080268,9.177673294,2.815689738,-4.318956717,-7.727970628,9.677040583
41:24.2,1.42E+12,0.9014255,-0.9153465,-8.834478,8.927397643,2.77419902,-4.174899287,-7.754555328,9.626599032
41:24.3,1.42E+12,0.5638774,-0.54726195,-8.678653,8.714153502,2.719751248,-4.028371992,-7.767790808,9.566733525
41:24.3,1.42E+12,0.5186714,-0.29129425,-8.55486,8.575517593,2.659291976,-3.881739917,-7.777490628,9.505199214
41:24.3,1.42E+12,0.21151017,-0.57420594,-8.479716,8.501766431,2.596452649,-3.744427456,-7.797336356,9.45373198
41:24.3,1.42E+12,0.17453705,-1.2299923,-9.066945,9.151657548,2.537151966,-3.627302022,-7.835674624,9.425867055
41:24.3,1.42E+12,0.64126647,-1.3418097,-9.494456,9.610222198,2.491011914,-3.518232836,-7.885131778,9.41394329
41:24.4,1.42E+12,0.8247849,-1.1795471,-9.127569,9.240352663,2.455676396,-3.406903344,-7.929152238,9.398548409
41:24.4,1.42E+12,1.1070977,-1.2973522,-8.702752,8.868296365,2.428690514,-3.295121788,-7.964092564,9.374083677
41:24.4,1.42E+12,1.0292597,-1.3124707,-8.6418295,8.801316491,2.394333958,-3.178340634,-8.001805148,9.345818949
41:24.4,1.42E+12,1.1391312,-1.3810282,-8.483309,8.670143619,2.360722854,-3.063457538,-8.044140118,9.319971269
41:24.4,1.42E+12,1.6142431,-1.583108,-8.4415455,8.739090465,2.322303746,-2.951592158,-8.081032398,9.287371767
41:24.5,1.42E+12,2.035168,-1.6832497,-8.366402,8.773364279,2.282259026,-2.846471762,-8.106275906,9.248433709
41:24.5,1.42E+12,2.4316933,-1.7919236,-8.421787,8.947101138,2.246300798,-2.753847374,-8.134674854,9.219364117
41:24.5,1.42E+12,2.4535477,-2.2412891,-8.336464,8.974402775,2.209447432,-2.671428756,-8.166783074,9.194653848
41:24.5,1.42E+12,2.6009912,-2.4533982,-8.251441,8.992808045,2.17582136,-2.5910998,-8.20019659,9.171036741
41:24.5,1.42E+12,2.529889,-2.4911196,-8.152048,8.891675984,2.1354563,-2.517039802,-8.23544829,9.148992349
41:24.6,1.42E+12,2.6884093,-2.6101222,-8.073611,8.900757105,2.09686954,-2.45057202,-8.263353262,9.125879998
41:24.6,1.42E+12,2.890489,-2.9312046,-7.9954734,8.993024072,2.06759641,-2.395729068,-8.28201645,9.104721289
41:24.6,1.42E+12,3.4864,-3.3682957,-7.9352984,9.298890341,2.05590273,-2.352322334,-8.302188498,9.095528103
41:24.6,1.42E+12,3.694617,-3.797902,-7.960147,9.562332071,2.050214558,-2.326608802,-8.323638898,9.09797345
41:24.6,1.42E+12,3.7407212,-3.7285964,-7.576944,9.236098018,2.041574522,-2.301616778,-8.329066618,9.087180453
41:24.7,1.42E+12,3.6278558,-3.5904336,-7.4013586,8.990698542,2.026964898,-2.27753485,-8.330788038,9.071550261
41:24.7,1.42E+12,3.5691779,-3.591182,-7.425608,8.987506507,2.018998466,-2.255042618,-8.342544578,9.067197148
41:24.7,1.42E+12,3.7368293,-3.9868095,-7.313641,9.129506442,2.016316048,-2.241190428,-8.35451069,9.068705033
41:24.7,1.42E+12,3.572471,-4.1664357,-6.943461,8.850615015,2.007684996,-2.22858065,-8.34206258,9.049467466
41:24.7,1.42E+12,3.7429664,-4.2583447,-6.9060388,8.935136762,2.002230336,-2.21438417,-8.32412987,9.026487016
41:24.8,1.42E+12,3.8621187,-4.343518,-6.6148944,8.805619648,2.00785863,-2.206399784,-8.298072064,9.004603133
41:24.8,1.42E+12,3.7377274,-4.7219305,-6.781049,9.069170817,2.014852086,-2.20745658,-8.278435904,8.992553077
41:24.8,1.42E+12,4.113147,-5.639822,-6.6666865,9.652475295,2.030847832,-2.229921866,-8.253641468,8.991809974
41:24.8,1.42E+12,4.547244,-6.289471,-7.4097414,10.73029082,2.057597208,-2.266406992,-8.236648796,9.007963706
41:24.8,1.42E+12,5.3160453,-6.8726583,-7.9534106,11.77924063,2.106509494,-2.322166038,-8.230933688,9.050874645
41:24.9,1.42E+12,5.0528927,-6.903045,-7.61721,11.45450318,2.158879594,-2.391082722,-8.219075348,9.095265239
41:24.9,1.42E+12,4.738097,-6.6966243,-6.8536477,10.68956627,2.203112608,-2.466343218,-8.192706182,9.128200541
41:24.9,1.42E+12,3.8507423,-6.4214964,-6.311625,9.792877127,2.225841342,-2.538343492,-8.140943822,9.129601255
41:24.9,1.42E+12,3.7173698,-5.966143,-5.8948917,9.174063913,2.257698098,-2.605814178,-8.092169256,9.133433455
41:24.9,1.42E+12,3.48161,-6.327941,-5.6410193,9.164362729,2.289776392,-2.683460712,-8.045205916,9.145450319
41:25.0,1.42E+12,3.275788,-6.55442,-5.1687517,8.96700634,2.31549591,-2.77284284,-7.98245043,9.14894249
41:25.0,1.42E+12,3.4658926,-6.7805996,-5.729186,9.529560046,2.34865795,-2.866275544,-7.92600281,9.159705844
41:25.0,1.42E+12,3.3087194,-7.1706886,-5.843249,9.823948185,2.3757067,-2.970488834,-7.87078563,9.175409358
41:25.0,1.42E+12,3.1566358,-7.3786063,-6.0376945,10.0430043,2.399608996,-3.08244702,-7.82351692,9.200090636
41:25.1,1.42E+12,3.4905913,-7.1817656,-6.330486,10.19004601,2.433785926,-3.195692528,-7.7817388,9.229112121
41:25.1,1.42E+12,3.2443533,-7.3082523,-6.232739,10.1382156,2.468007762,-3.32072452,-7.73818836,9.259597711
41:25.1,1.42E+12,3.153642,-7.520511,-5.7808285,9.996075315,2.51815049,-3.456758635,-7.70349051,9.307966305
41:25.1,1.42E+12,3.18822,-7.693701,-5.71287,10.09924084,2.571469611,-3.594418373,-7.63939379,9.330557145
41:25.1,1.42E+12,3.0793962,-7.576345,-5.740712,9.991969715,2.629300348,-3.727195263,-7.58300603,9.358129874
41:25.1,1.42E+12,2.7087672,-7.5606275,-5.8848624,9.956511106,2.668111641,-3.868127192,-7.515682038,9.37131762
41:25.2,1.42E+12,3.1924114,-7.970026,-6.3926067,10.70412189,2.719281234,-4.022441289,-7.468748632,9.410081477
41:25.2,1.42E+12,3.3304243,-8.036488,-6.8290987,11.05954133,2.767103786,-4.176863167,-7.423398946,9.448264573
41:25.2,1.42E+12,3.227738,-7.7314224,-6.715635,10.73745493,2.814818565,-4.318007655,-7.375779986,9.479807419
41:25.2,1.42E+12,2.6569748,-7.334897,-6.51595,10.16453804,2.848471584,-4.446494465,-7.324493626,9.499544714
41:25.3,1.42E+12,2.1071682,-7.1593122,-6.239176,9.727447052,2.872586438,-4.571373779,-7.272587586,9.515545702
41:25.3,1.42E+12,1.9318826,-6.793922,-5.8616605,9.178704175,2.899946542,-4.69630698,-7.216247736,9.524836715
41:25.3,1.42E+12,2.0246897,-6.270161,-5.590125,8.640820844,2.930066908,-4.815884315,-7.156953036,9.52614278
41:25.3,1.42E+12,1.6274158,-6.1306515,-5.4402866,8.356439929,2.95838502,-4.927013226,-7.096164448,9.52323625
41:25.4,1.42E+12,2.6168582,-6.307284,-5.5271063,8.785139859,3.007231443,-5.02855906,-7.025367674,9.515905897
41:25.4,1.42E+12,2.7481353,-7.0894074,-6.2686644,9.854344132,3.04936882,-5.143511014,-6.960851842,9.520788335
41:25.4,1.42E+12,3.7318895,-7.5211096,-6.7461715,10.77055796,3.107510912,-5.270342264,-6.913223892,9.551392441
41:25.4,1.42E+12,3.4631982,-7.661069,-6.745872,10.77926292,3.154632922,-5.3976166,-6.874086292,9.589611772
41:25.4,1.42E+12,3.2745905,-7.4208183,-6.094277,10.14552607,3.199539538,-5.519783552,-6.823135242,9.616495964
41:25.4,1.42E+12,3.1391222,-7.5444613,-5.629643,9.922996765,3.239539358,-5.643052214,-6.766061922,9.641553027
41:25.4,1.42E+12,3.0677207,-7.065757,-5.4212766,9.419451802,3.26860891,-5.752705194,-6.705656544,9.655160254
41:25.5,1.42E+12,3.0889764,-6.7094975,-5.716313,9.339987485,3.289685078,-5.85323015,-6.652654764,9.666492718
41:25.5,1.42E+12,2.8972251,-6.6599507,-5.8375607,9.318045478,3.298995714,-5.950590692,-6.600970238,9.673911605
41:25.5,1.42E+12,2.50534,-6.168223,-5.8698936,8.875773452,3.30003156,-6.02912937,-6.55163883,9.671939018
41:25.5,1.42E+12,2.8165429,-5.9805136,-5.9921894,8.922207722,3.304342594,-6.099671678,-6.506453798,9.670527012
41:25.5,1.42E+12,3.0485604,-5.9793158,-6.4008393,9.274517868,3.314716022,-6.169435602,-6.471429624,9.678183849
41:25.6,1.42E+12,3.2650104,-6.071674,-6.65531,9.582205867,3.326248044,-6.238666638,-6.443063604,9.691812825
41:25.6,1.42E+12,3.5242712,-6.5484324,-6.7364416,10.03404703,3.338923688,-6.311011194,-6.417882968,9.712633284
41:25.6,1.42E+12,3.5145414,-6.808292,-6.7425785,10.20623369,3.339486516,-6.37981112,-6.39402857,9.730780151
41:25.6,1.42E+12,3.840863,-7.1715865,-7.024293,10.74823584,3.342411436,-6.44728481,-6.37531149,9.754498226
41:25.6,1.42E+12,4.350553,-7.1591625,-7.2841525,11.10134211,3.354608072,-6.515896132,-6.36945566,9.791803108
41:25.7,1.42E+12,4.170777,-6.744375,-7.5321865,10.93690122,3.365466496,-6.57897496,-6.372072218,9.830727161
41:25.7,1.42E+12,4.349505,-6.45338,-7.26125,10.64378028,3.381073038,-6.63621892,-6.368785058,9.863852637
41:25.7,1.42E+12,4.0154,-6.269263,-6.740633,10.0430687,3.386644452,-6.68186799,-6.357324898,9.882123882
41:25.7,1.42E+12,3.7880228,-6.0965223,-6.5738797,9.733067101,3.390955488,-6.720469722,-6.349933272,9.899772924
41:25.7,1.42E+12,3.2956965,-6.1795993,-6.663543,9.667050649,3.38201009,-6.758894814,-6.345083356,9.914411202
41:25.8,1.42E+12,3.0323942,-5.990692,-6.56415,9.389987777,3.3654156,-6.791838294,-6.344068468,9.926098564
41:25.8,1.42E+12,2.8147466,-5.8059764,-6.6470776,9.263681827,3.346955984,-6.813519212,-6.34138904,9.929988784
41:25.8,1.42E+12,2.8782148,-5.418133,-6.9437604,9.265856363,3.32225734,-6.809085432,-6.346930518,9.922256406
41:25.8,1.42E+12,3.3239877,-5.053641,-7.3813004,9.543153419,3.297792214,-6.784368832,-6.346361698,9.898513658
41:25.8,1.42E+12,3.2889605,-4.9749045,-8.007748,9.984536243,3.257250518,-6.746413756,-6.347448446,9.86261957
41:25.9,1.42E+12,3.065625,-5.0374746,-7.9107494,9.866821325,3.217505164,-6.709102348,-6.353319234,9.830865933
41:25.9,1.42E+12,3.3627572,-4.829407,-7.424261,9.473698293,3.189998368,-6.671758002,-6.3647315,9.806548573
41:25.9,1.42E+12,3.5592985,-4.9532,-8.100105,10.13974837,3.184169492,-6.642392074,-6.4005011,9.813485998
41:25.9,1.42E+12,3.560047,-4.6129575,-8.243507,10.09498485,3.181023036,-6.615328364,-6.447473406,9.831904417
41:25.9,1.42E+12,3.5616934,-4.2396336,-8.597073,10.22593845,3.182624704,-6.573562216,-6.50659448,9.853135931
41:26.0,1.42E+12,3.1475048,-3.8044884,-8.543184,9.86746732,3.18005904,-6.518563584,-6.574083126,9.871145151
41:26.0,1.42E+12,3.1025982,-3.204686,-8.049661,9.202889229,3.172793152,-6.447045312,-6.620492626,9.864611735
41:26.0,1.42E+12,2.9374914,-2.581831,-7.9791574,8.886037354,3.165368592,-6.35526816,-6.663210794,9.845853518
41:26.0,1.42E+12,3.0936167,-2.436184,-8.090526,8.997892405,3.16410821,-6.256419714,-6.704267424,9.82495128
41:26.0,1.42E+12,3.0000613,-2.4563918,-8.764275,9.583670735,3.15429761,-6.161912238,-6.752943204,9.812823775
41:26.1,1.42E+12,2.3478675,-2.3293061,-8.884924,9.480507539,3.136367894,-6.062333314,-6.805986904,9.799669613
41:26.1,1.42E+12,1.9748433,-2.1392014,-8.565638,9.046896873,3.11279192,-5.954707122,-6.861683094,9.780686044
41:26.1,1.42E+12,1.5537689,-1.8083894,-8.676557,8.99817267,3.080102898,-5.83700089,-6.920956834,9.758664681
41:26.1,1.42E+12,1.6351995,-1.5028747,-8.994645,9.26478,3.051218964,-5.715531484,-6.986035494,9.744120887
41:26.1,1.42E+12,1.7036073,-1.296454,-9.04045,9.290468611,3.031115766,-5.590248014,-7.049147246,9.730800037
41:26.2,1.42E+12,1.7064514,-1.0023156,-8.9055805,9.122827247,3.001396566,-5.450893806,-7.099406722,9.699174144
41:26.2,1.42E+12,1.5147002,-0.7557784,-8.766669,8.928605885,2.965082084,-5.305279614,-7.138158128,9.656555435
41:26.2,1.42E+12,1.2534933,-0.90591615,-8.4431925,8.58367224,2.92559719,-5.168769489,-7.172709278,9.613479781
41:26.2,1.42E+12,0.8327184,-0.751138,-8.517588,8.59109618,2.889112062,-5.037094309,-7.212742038,9.582010944
41:26.2,1.42E+12,0.941542,-0.61342436,-8.972192,9.042290643,2.865799538,-4.906176552,-7.267402358,9.568307816
41:26.3,1.42E+12,1.0687774,-0.18726058,-8.964558,9.029986256,2.848537434,-4.774043324,-7.329460308,9.565333458
41:26.3,1.42E+12,0.88061875,0.013022918,-8.604108,8.649065467,2.825656015,-4.648379645,-7.389739968,9.56549835
41:26.3,1.42E+12,0.44397676,0.008232879,-8.363109,8.374889569,2.801987234,-4.525601958,-7.448196416,9.565867343
41:26.4,1.42E+12,0.436642,0.24758515,-8.483009,8.497846571,2.75838291,-4.394504575,-7.50731447,9.560121477
41:26.4,1.42E+12,0.7283853,0.624651,-8.330477,8.385557886,2.71798791,-4.240223407,-7.548550722,9.530745752
41:26.4,1.42E+12,0.96579164,0.3689827,-8.504265,8.566879532,2.662665953,-4.082421561,-7.583712592,9.486672184
41:26.4,1.42E+12,0.8699908,0.27408004,-8.315358,8.365236549,2.610801805,-3.92371858,-7.615102312,9.438391656
41:26.4,1.42E+12,0.52376086,0.003143463,-8.401579,8.417889582,2.555785212,-3.775239345,-7.661248352,9.403838926
41:26.4,1.42E+12,0.41733214,-0.5228627,-8.619226,8.645149412,2.501349411,-3.634807373,-7.721040012,9.378281979
41:26.4,1.42E+12,0.99019086,-0.83795744,-8.783135,8.87840701,2.459798814,-3.510251382,-7.78827718,9.367461083
41:26.5,1.42E+12,1.3597723,-0.8265811,-8.943901,9.084359203,2.425214732,-3.392593054,-7.85282894,9.362348518
41:26.5,1.42E+12,0.7391629,-0.38934037,-8.599168,8.63965497,2.382053488,-3.267180847,-7.908061086,9.348780708
41:26.5,1.42E+12,0.98225737,-0.23546036,-8.983568,9.040175061,2.351591836,-3.148525594,-7.970334574,9.35206874
41:26.5,1.42E+12,1.9035915,-1.4211447,-9.461076,9.754756375,2.333332808,-3.057338216,-8.039712306,9.368719713
41:26.5,1.42E+12,1.9670595,-1.6503181,-9.317524,9.664839699,2.31170279,-2.970758262,-8.098046,9.37652615
41:26.6,1.42E+12,2.5036936,-1.7131875,-9.45449,9.929293742,2.296476454,-2.883588532,-8.1540296,9.383467907
41:26.6,1.42E+12,3.2389646,-2.5038433,-9.870773,10.68607891,2.290770322,-2.80269675,-8.216716228,9.396508545
41:26.6,1.42E+12,2.6764343,-2.9017158,-9.132809,9.949444978,2.27400818,-2.724565226,-8.264520838,9.39137277
41:26.6,1.42E+12,1.9661614,-2.4165747,-8.535101,9.085899681,2.236514148,-2.62946499,-8.294736998,9.358126047
41:26.6,1.42E+12,1.8910176,-2.0748353,-7.890242,8.374772111,2.18732344,-2.527778446,-8.306858788,9.303594647
41:26.7,1.42E+12,2.2402413,-1.6733702,-7.623048,8.119711184,2.148712726,-2.42635835,-8.308676018,9.247250847
41:26.7,1.42E+12,2.5182133,-1.8910176,-7.2889423,7.940152747,2.112086892,-2.335111102,-8.309229864,9.193178296
41:26.7,1.42E+12,2.8460317,-2.2107527,-7.142547,8.000206346,2.088699526,-2.253940896,-8.317268144,9.152321049
41:26.7,1.42E+12,3.2064822,-2.7625053,-7.059769,8.231239394,2.077068714,-2.187260556,-8.32698593,9.122284495
41:26.7,1.42E+12,3.527265,-3.1543903,-7.411388,8.793204685,2.081700084,-2.126756376,-8.34194283,9.104807575
41:26.8,1.42E+12,3.6531532,-3.8920565,-7.6616673,9.337814408,2.094115264,-2.084783666,-8.363893176,9.103764108
41:26.8,1.42E+12,3.86631,-4.4325824,-8.02571,9.950284456,2.115146532,-2.057315786,-8.391465824,9.117496161
41:26.8,1.42E+12,3.8281393,-4.8460226,-7.955806,10.07141672,2.134145022,-2.045873578,-8.411706736,9.133607368
41:26.8,1.42E+12,3.6465669,-5.0951047,-7.826774,10.02576348,2.140596606,-2.046702852,-8.420616208,9.143259569
41:26.8,1.42E+12,3.5112484,-5.1178575,-7.544012,9.769004441,2.145042364,-2.049561912,-8.411341488,9.138948933
41:26.9,1.42E+12,3.4621503,-5.0591793,-7.449409,9.64756313,2.15297287,-2.049996006,-8.40211468,9.134563769
41:26.9,1.42E+12,3.7476068,-5.106032,-7.1784725,9.573222391,2.160669862,-2.055528506,-8.39719891,9.136554251
41:26.9,1.42E+12,3.9489381,-5.4215755,-7.024143,9.712166489,2.168462654,-2.064896016,-8.37567967,9.128002613
41:26.9,1.42E+12,3.9806721,-5.682483,-6.980883,9.842209654,2.176875156,-2.086286526,-8.35042719,9.122947109
41:26.9,1.42E+12,4.012556,-5.859864,-6.9385214,9.928831299,2.185892408,-2.118691134,-8.317256158,9.117004966
41:27.0,1.42E+12,3.9089713,-6.052364,-6.6190853,9.783836508,2.201121738,-2.163648646,-8.278774184,9.11533235
41:27.0,1.42E+12,3.8005967,-6.1622357,-6.74213,9.893128981,2.215081708,-2.22279964,-8.252623564,9.129137145
41:27.0,1.42E+12,3.9410048,-6.378386,-6.9820805,10.24523181,2.235151976,-2.29873074,-8.232682026,9.156321034
41:27.0,1.42E+12,4.3068438,-6.9033446,-7.125782,10.81581431,2.259416518,-2.388073952,-8.213387146,9.192679472
41:27.0,1.42E+12,4.5934978,-7.3774085,-7.1482353,11.25271728,2.291285248,-2.486494286,-8.181066352,9.226060403
41:27.1,1.42E+12,4.3400745,-7.480544,-6.7114434,10.94706617,2.331129388,-2.589519044,-8.13759674,9.255391576
41:27.1,1.42E+12,3.80374,-7.4354877,-6.2810884,10.45021468,2.367707322,-2.69544477,-8.091905748,9.283457932
41:27.1,1.42E+12,3.4341586,-7.3575,-6.2764482,10.2625559,2.405315116,-2.806426982,-8.043903572,9.308745597
41:27.1,1.42E+12,3.45751,-7.394473,-6.16987,10.23229701,2.441761326,-2.924258948,-7.987408072,9.328095937
41:27.1,1.42E+12,3.473976,-7.1542225,-6.1267595,10.03935211,2.4771687,-3.041414318,-7.929134262,9.343073607
41:27.2,1.42E+12,3.4473312,-7.07863,-6.2343855,10.04284111,2.511986296,-3.162940606,-7.875710362,9.361473884
41:27.2,1.42E+12,3.286865,-7.189998,-6.443201,10.19874462,2.547429592,-3.291624998,-7.829241002,9.386876659
41:27.2,1.42E+12,3.1989977,-7.109316,-6.5086155,10.15568983,2.58633968,-3.415692995,-7.790549462,9.418317011
41:27.2,1.42E+12,3.0913715,-7.08342,-6.7624874,10.26950108,2.631512742,-3.542338635,-7.75544745,9.451885109
41:27.2,1.42E+12,2.8410919,-7.103179,-6.843918,10.26480242,2.66950374,-3.672133728,-7.71288197,9.476335344
41:27.3,1.42E+12,2.959346,-7.3572006,-6.704558,10.38447049,2.707315112,-3.815532528,-7.66768197,9.503425029
41:27.4,1.42E+12,2.7892997,-7.6606197,-6.6078587,10.4942405,2.745488731,-3.969005381,-7.627756984,9.540328529
41:27.4,1.42E+12,2.6464965,-7.4407268,-6.3295875,10.12087135,2.789539125,-4.117984574,-7.587086554,9.575248165
41:27.4,1.42E+12,2.6125174,-7.268884,-6.109246,9.848086538,2.833056633,-4.268313957,-7.539611294,9.602252964
41:27.4,1.42E+12,3.0886772,-7.1030293,-6.354286,10.01847806,2.880262471,-4.422867563,-7.500087474,9.634911368
41:27.4,1.42E+12,3.0828393,-7.2461314,-6.144273,9.988113391,2.922603425,-4.575169845,-7.452887634,9.663336045
41:27.4,1.42E+12,3.2123199,-7.4095917,-6.262527,10.21960335,2.969450007,-4.72884328,-7.411831014,9.700423381
41:27.4,1.42E+12,3.3528776,-7.297924,-6.23723,10.16880135,3.026032341,-4.874864629,-7.368544034,9.735441616
41:27.4,1.42E+12,3.6504588,-6.96786,-6.0602975,9.929961139,3.090694875,-5.003764575,-7.317365464,9.761137851
41:27.4,1.42E+12,3.7631745,-7.135661,-6.5074177,10.36463339,3.146154547,-5.129718647,-7.271851118,9.790862379
41:27.5,1.42E+12,3.5576518,-7.0563264,-6.071075,9.965268699,3.190112137,-5.254313553,-7.214394598,9.808480569
41:27.5,1.42E+12,3.0773008,-7.2163434,-5.5775514,9.625719293,3.236874895,-5.390853613,-7.153962266,9.828201855
41:27.5,1.42E+12,3.612438,-6.991511,-5.4739666,9.586200744,3.289478508,-5.525974626,-7.083770238,9.839122369
41:27.5,1.42E+12,3.522924,-6.723269,-6.157745,9.774004453,3.321865158,-5.632017112,-7.017703618,9.83950733
41:27.5,1.42E+12,3.9478903,-6.7575474,-7.542665,10.86931829,3.361481774,-5.734161698,-6.982206438,9.863596902
41:27.6,1.42E+12,4.22691,-6.944509,-8.014633,11.41609896,3.395946102,-5.838788128,-6.953409298,9.893333006
41:27.6,1.42E+12,4.4921584,-6.8175726,-7.254514,10.92184767,3.421009978,-5.925062714,-6.901084118,9.898048382
41:27.6,1.42E+12,4.2400827,-6.421796,-6.423592,10.0239862,3.452282946,-5.995464318,-6.846899778,9.899539206
41:27.7,1.42E+12,4.0921903,-5.89564,-5.6901174,9.158713255,3.494803524,-6.065045624,-6.790000106,9.900995478
41:27.7,1.42E+12,3.9676492,-5.740712,-6.695277,9.670819435,3.536336156,-6.138363158,-6.766100806,9.926916424
41:27.7,1.42E+12,3.8634658,-5.507198,-7.272028,9.906461984,3.568800646,-6.215039714,-6.759080406,9.96265144
41:27.7,1.42E+12,3.7047958,-5.3850517,-6.8594856,9.475063927,3.592532296,-6.284920396,-6.750491272,9.993349664
41:27.7,1.42E+12,3.8728962,-5.2136583,-7.274872,9.752195674,3.613069586,-6.344978508,-6.753137772,10.02838945
41:27.7,1.42E+12,3.9531295,-5.155878,-7.3774085,9.830384884,3.628002532,-6.392845962,-6.759490562,10.06037236
41:27.7,1.42E+12,3.7347336,-4.97236,-7.2272706,9.534465866,3.632151904,-6.429205356,-6.755808214,10.07519758
41:27.8,1.42E+12,3.9291792,-4.525539,-7.788005,9.827104065,3.637672424,-6.441875006,-6.758334968,10.08498338
41:27.8,1.42E+12,3.9576201,-4.2406816,-8.188272,10.0346368,3.639498626,-6.43803699,-6.761586208,10.08667042
41:27.8,1.42E+12,3.8983433,-4.1617956,-8.16058,9.955535598,3.640902706,-6.42435245,-6.765681688,10.0843528
41:27.8,1.42E+12,3.4600549,-3.5564544,-8.096812,9.496247278,3.637172466,-6.393579444,-6.771082448,10.07376248
41:27.8,1.42E+12,3.7438645,-3.4179924,-8.069719,9.5299296,3.641824788,-6.359582142,-6.781596588,10.06898098
41:27.9,1.42E+12,3.6685712,-3.306624,-8.023465,9.421686024,3.645953206,-6.324531036,-6.793077708,10.06446344
41:27.9,1.42E+12,3.506608,-2.8464806,-7.971673,9.162222541,3.64113323,-6.279340008,-6.808941718,10.05624344
41:27.9,1.42E+12,3.18822,-2.6147625,-7.888296,8.90095183,3.625918868,-6.223203748,-6.826224778,10.04001915
41:27.9,1.42E+12,2.4921675,-2.149081,-7.7121124,8.384874815,3.596148776,-6.152535708,-6.840849366,10.01087245
41:27.9,1.42E+12,2.0088227,-1.8982027,-7.55943,8.048821284,3.55607411,-6.073302482,-6.853267538,9.973272251
41:28.0,1.42E+12,1.5144008,-1.4497353,-7.803273,8.07998835,3.5081827,-5.981249908,-6.876951292,9.939195288
41:28.0,1.42E+12,1.1298505,-1.1138338,-8.4634,8.610826177,3.454767776,-5.88028187,-6.911376692,9.913549232
41:28.0,1.42E+12,1.405128,-0.8981323,-8.832533,8.98858529,3.40405024,-5.770676796,-6.948385742,9.888416301
41:28.0,1.42E+12,1.5480808,-0.9479787,-8.876691,9.060400702,3.34887498,-5.651569478,-6.983403922,9.853308029
41:28.0,1.42E+12,1.162782,-0.81700104,-8.635841,8.751988486,3.280260664,-5.520361329,-7.013156036,9.803293453
41:28.1,1.42E+12,1.0990146,-0.8345146,-8.235574,8.350384831,3.215439466,-5.387440741,-7.043638648,9.751359826
41:28.1,1.42E+12,0.8443941,-0.6262976,-8.080796,8.148896494,3.156252548,-5.251256939,-7.0796328,9.705333463
41:28.1,1.42E+12,0.96429473,-0.54501665,-8.665929,8.73643136,3.106855271,-5.115007272,-7.127422416,9.674810972
41:28.1,1.42E+12,0.73572004,-0.016914826,-8.508157,8.539924217,3.052419471,-4.967456108,-7.174188156,9.640963516
41:28.1,1.42E+12,0.2893483,0.4899312,-8.518336,8.537318269,2.988726917,-4.814573034,-7.222019686,9.610922839
41:28.2,1.42E+12,0.24129821,0.6851253,-8.462053,8.493171521,2.924606258,-4.659297928,-7.266573036,9.579929447
41:28.2,1.42E+12,0.10762619,0.6649173,-8.302185,8.32946422,2.861021481,-4.502199622,-7.303752716,9.542543839
41:28.2,1.42E+12,0.26030868,0.57405627,-8.385712,8.40936781,2.802247701,-4.348532177,-7.341294646,9.507617399
41:28.2,1.42E+12,0.43574387,0.4418811,-8.470137,8.492841246,2.749135148,-4.198026155,-7.375447638,9.472084202
41:28.2,1.42E+12,0.57959473,0.4739145,-8.571027,8.603663687,2.703905205,-4.046484285,-7.409989818,9.438861428
41:28.3,1.42E+12,0.7430548,0.4391867,-8.292605,8.337404457,2.659579381,-3.890556539,-7.441750758,9.397920107
41:28.3,1.42E+12,1.0207274,0.030536499,-8.452922,8.514382376,2.624207935,-3.736733415,-7.478652024,9.358322945
41:28.3,1.42E+12,1.5212865,-0.24653733,-8.514444,8.652794341,2.601703735,-3.592849626,-7.522349154,9.328961404
41:28.3,1.42E+12,1.7738113,-0.6474037,-8.70365,8.906124937,2.584929613,-3.46042002,-7.574237234,9.310122172
41:28.4,1.42E+12,1.8366807,-0.91923845,-8.613837,8.855313839,2.559889683,-3.336744203,-7.619428254,9.286858888
41:28.4,1.42E+12,1.617237,-1.3715978,-8.480914,8.74200425,2.530577637,-3.219253531,-7.666161074,9.261936705
41:28.4,1.42E+12,1.5867004,-1.635499,-8.549471,8.84793363,2.498065247,-3.103771677,-7.711899954,9.234503311
41:28.4,1.42E+12,1.6977695,-1.3207036,-8.433462,8.703445328,2.464963085,-2.984227269,-7.755824594,9.20519619
41:28.4,1.42E+12,1.7534537,-1.3813275,-8.362809,8.655590096,2.427022983,-2.872496619,-7.801874824,9.179708769
41:28.4,1.42E+12,2.071093,-1.4985337,-8.478968,8.85595437,2.393181353,-2.759754073,-7.84130583,9.149535189
41:28.5,1.42E+12,2.3165827,-2.052382,-8.279732,8.839275382,2.368359971,-2.659675185,-7.88547897,9.127015323
41:28.5,1.42E+12,2.3059547,-2.4890242,-7.8881464,8.586939046,2.352933049,-2.565128801,-7.93169087,9.106239718
41:28.5,1.42E+12,2.4400759,-3.0114377,-8.263566,9.127390123,2.329485807,-2.485527335,-7.987482858,9.097063505
41:28.5,1.42E+12,2.9850924,-3.388204,-8.421638,9.555871995,2.318729175,-2.418826035,-8.032760718,9.092700856
41:28.5,1.42E+12,3.2928524,-3.740272,-8.680449,10.00913115,2.305628417,-2.358480527,-8.055516398,9.075497113
41:28.6,1.42E+12,3.2078292,-3.7899687,-7.9598475,9.381535223,2.285246801,-2.295389721,-8.054420688,9.034805839
41:28.6,1.42E+12,3.2654595,-3.9782772,-7.5514965,9.138654968,2.260712823,-2.238603813,-8.060360338,8.999141985
41:28.6,1.42E+12,3.4063165,-4.443809,-7.8231816,9.620426231,2.244037499,-2.199044073,-8.08835213,8.991070785
41:28.7,1.42E+12,3.4618511,-4.947811,-7.6685534,9.760735524,2.231430715,-2.180087493,-8.12792085,9.003111231
41:28.7,1.42E+12,3.4232314,-5.3352056,-7.351812,9.707320521,2.220542359,-2.171977365,-8.14105155,9.003841252
41:28.7,1.42E+12,3.6203713,-5.5934186,-7.550299,10.0697783,2.215680469,-2.173701777,-8.14661697,9.007107579
41:28.7,1.42E+12,3.6539016,-6.0576034,-7.555089,10.35011718,2.214662585,-2.187152811,-8.160529038,9.024608644
41:28.7,1.42E+12,3.920647,-6.1426263,-7.3798037,10.37134675,2.215617601,-2.205732171,-8.162627672,9.036991665
41:28.7,1.42E+12,3.9957907,-6.3719497,-7.215745,10.4228145,2.216470825,-2.230053605,-8.159394402,9.048840258
41:28.7,1.42E+12,3.8853204,-6.4665527,-6.889573,10.21656667,2.219482561,-2.259937459,-8.15264045,9.062482274
41:28.8,1.42E+12,4.111051,-6.6388445,-6.924151,10.43642006,2.223119997,-2.302203569,-8.13536337,9.074668594
41:28.8,1.42E+12,4.256698,-6.998247,-7.0298314,10.79414047,2.229101555,-2.357354877,-8.112194558,9.089858667
41:28.8,1.42E+12,4.2358913,-7.1145554,-6.7898803,10.70804128,2.235852515,-2.416410073,-8.084780564,9.104908781
41:28.8,1.42E+12,3.8829255,-7.4615335,-6.8783464,10.86569104,2.244309927,-2.494511655,-8.060411252,9.132297656
41:28.8,1.42E+12,3.4941838,-7.26619,-6.5295715,10.37507308,2.239316313,-2.571475607,-8.029608302,9.149200525
41:28.9,1.42E+12,3.339256,-7.3817496,-6.5716343,10.43202929,2.232730009,-2.652978119,-8.000571688,9.169407391
41:28.9,1.42E+12,3.3212934,-7.2543645,-6.797215,10.48136088,2.229023717,-2.741135797,-7.977082528,9.195790158
41:28.9,1.42E+12,3.1819332,-7.09794,-6.795868,10.32904996,2.228897981,-2.830799347,-7.955233968,9.22435212
41:28.9,1.42E+12,2.8807595,-7.1727843,-6.702013,10.23057125,2.236669821,-2.931273413,-7.93503198,9.261266049
41:29.0,1.42E+12,2.794389,-7.091653,-6.8325415,10.23639465,2.252381147,-3.035142419,-7.92049421,9.305017516
41:29.0,1.42E+12,2.7951374,-7.255412,-6.8749037,10.37873293,2.277995879,-3.151255953,-7.901926824,9.350992408
41:29.0,1.42E+12,3.085833,-7.2361026,-6.927594,10.48213264,2.317115529,-3.273701329,-7.871210704,9.388418537
41:29.0,1.42E+12,3.1317873,-7.295379,-6.855294,10.48931372,2.351648715,-3.401646263,-7.831665924,9.418433106
41:29.0,1.42E+12,3.051704,-7.5001535,-6.6304617,10.46557319,2.381721179,-3.532689759,-7.786741338,9.446536555
41:29.0,1.42E+12,3.0629306,-7.508985,-6.790629,10.57728896,2.419724151,-3.666529438,-7.749837098,9.483042565
41:29.1,1.42E+12,3.0948143,-7.6112223,-7.1965847,10.92242701,2.459640145,-3.802063592,-7.729057312,9.534483408
41:29.1,1.42E+12,2.7319689,-7.5145235,-6.6110024,10.37482868,2.497391641,-3.93982811,-7.69966144,9.579002052
41:29.1,1.42E+12,3.0061986,-6.8499055,-5.7799306,9.453360943,2.538229718,-4.065925887,-7.641941472,9.593340644
41:29.1,1.42E+12,3.3813186,-7.2136493,-6.3134212,10.16510398,2.59114169,-4.209860576,-7.598046756,9.625844239
41:29.1,1.42E+12,3.1582823,-7.491621,-6.623576,10.48670069,2.64852037,-4.36949162,-7.560151556,9.664831887
41:29.2,1.42E+12,3.2112722,-7.7430983,-7.117399,10.99659988,2.707919849,-4.538056092,-7.533258476,9.714900455
41:29.2,1.42E+12,3.592679,-7.6389146,-6.9748955,10.95032081,2.777620906,-4.70413273,-7.506712686,9.767317586
41:29.2,1.42E+12,4.170178,-7.041657,-6.4415545,10.4148424,2.855818292,-4.856446996,-7.467829536,9.807427078
41:29.2,1.42E+12,4.369863,-6.5493307,-6.1767554,10.00708462,2.934500675,-4.996271232,-7.421961904,9.837711946
41:29.2,1.42E+12,4.1843987,-6.6836014,-6.5262785,10.23582098,3.006596754,-5.13942155,-7.381066934,9.870355092
41:29.3,1.42E+12,3.841312,-7.003037,-6.808741,10.49557807,3.068561898,-5.288266024,-7.351389654,9.913518564
41:29.3,1.42E+12,3.7579353,-6.7316513,-6.1644807,9.871070319,3.123306056,-5.42350978,-7.305620828,9.940652323
41:29.3,1.42E+12,3.4759219,-6.556366,-6.362669,9.775046035,3.162398764,-5.549706353,-7.262585328,9.963097357
41:29.3,1.42E+12,3.7257524,-5.9694366,-7.0254903,9.943486221,3.201437586,-5.656147011,-7.229022134,9.983844582
41:29.3,1.42E+12,3.9577699,-5.758226,-7.25646,10.07359524,3.24385937,-5.752926762,-7.201874594,10.00821021
41:29.4,1.42E+12,4.059259,-5.26066,-7.3145394,9.882034907,3.29269981,-5.830708006,-7.178547102,10.03101082
41:29.4,1.42E+12,4.2507105,-5.4112473,-7.8342586,10.4271638,3.345980012,-5.906222972,-7.164242854,10.06259543
41:29.4,1.42E+12,4.24637,-5.3491263,-7.7573185,10.33541488,3.396952022,-5.986791426,-7.150719984,10.09523482
41:29.4,1.42E+12,4.244424,-5.1624646,-7.584877,10.10923019,3.446771428,-6.062414168,-7.135161344,10.12430762
41:29.5,1.42E+12,3.8709502,-5.1955457,-7.6977425,10.06147058,3.482768572,-6.136354408,-7.119536834,10.14841794
41:29.5,1.42E+12,4.1391926,-4.9442186,-7.9332027,10.22320488,3.51922077,-6.19419114,-7.112606248,10.17609653
41:29.5,1.42E+12,4.16434,-4.4969487,-7.8406954,9.951923412,3.556388476,-6.23434963,-7.111657228,10.20339622
41:29.5,1.42E+12,4.242777,-4.168232,-7.991731,9.962082064,3.592442498,-6.257485516,-7.106220528,10.22009006
41:29.5,1.42E+12,3.9655535,-3.555107,-7.835456,9.474110569,3.61205172,-6.260823576,-7.094496888,10.21845483
41:29.5,1.42E+12,3.4853523,-3.3268318,-7.6568775,9.046726675,3.615901718,-6.252554772,-7.074025458,10.19920674
41:29.6,1.42E+12,3.2680042,-2.949317,-7.9760137,9.110165573,3.617105218,-6.235741738,-7.074348782,10.19377935
41:29.6,1.42E+12,2.6661057,-2.8666887,-8.232281,9.115726749,3.605118142,-6.213509968,-7.087964472,10.19332078
41:29.6,1.42E+12,2.1435425,-2.6641598,-8.21342,8.896785374,3.579862662,-6.177916984,-7.09576924,10.17884797
41:29.6,1.42E+12,1.9085312,-2.237098,-8.46819,8.964225604,3.548796264,-6.123702724,-7.111761972,10.16291777
41:29.6,1.42E+12,1.7209712,-1.2874727,-8.278984,8.553414751,3.51475106,-6.042748066,-7.130305412,10.13983965
41:29.7,1.42E+12,2.3013144,-0.7867639,-8.22749,8.579431048,3.488369922,-5.946614972,-7.143849232,10.11003271
41:29.7,1.42E+12,2.4667203,-0.606389,-8.481961,8.854156033,3.464626296,-5.837590684,-7.162386672,10.08011349
41:29.7,1.42E+12,2.327959,-0.85906357,-8.33347,8.695062137,3.432772536,-5.731919429,-7.181459998,10.04658779
41:29.7,1.42E+12,1.7835411,-0.8975336,-8.188272,8.428189827,3.388527544,-5.622431107,-7.200910538,10.0066953
41:29.7,1.42E+12,1.309477,-0.48738647,-8.5855465,8.698498968,3.337010676,-5.502847783,-7.234830008,9.976333946
41:29.8,1.42E+12,1.1702664,-0.13352233,-8.506511,8.587670293,3.278194984,-5.372741339,-7.266477208,9.939358951
41:29.8,1.42E+12,1.087788,0.35356477,-9.123677,9.195095039,3.214816784,-5.225705104,-7.30835412,9.907378042
41:29.8,1.42E+12,0.9952803,0.27632537,-8.802146,8.862545503,3.150004564,-5.077887489,-7.348599434,9.870468126
41:29.8,1.42E+12,0.93630296,0.5005591,-8.3914,8.458298683,3.091072113,-4.918645637,-7.378860506,9.822320279
41:29.8,1.42E+12,0.8327184,0.33425492,-8.139474,8.188783993,3.037842805,-4.766636738,-7.411058556,9.778594498
41:29.9,1.42E+12,0.3477269,0.13771363,-8.294552,8.302979701,2.978012223,-4.616247474,-7.44551691,9.736013506
41:29.9,1.42E+12,0.83062273,0.23276596,-8.715925,8.758508019,2.92819881,-4.466504864,-7.48389111,9.701556449
41:30.0,1.42E+12,0.54875886,0.21315674,-8.558602,8.578825111,2.875535323,-4.32028293,-7.51914579,9.666551952
41:30.0,1.42E+12,0.5511539,-0.3598517,-8.414901,8.440605589,2.828943211,-4.184024278,-7.55340355,9.630752638
41:30.0,1.42E+12,0.7493417,-0.5295987,-8.302934,8.353484349,2.788042265,-4.052783192,-7.5828114,9.593094432
41:30.0,1.42E+12,1.0508149,-0.52121615,-8.845406,8.922840665,2.753155815,-3.918099275,-7.622221446,9.563976587
41:30.0,1.42E+12,1.1912228,-0.56028485,-8.688831,8.787986972,2.715263611,-3.78458292,-7.657446186,9.530093674
41:30.0,1.42E+12,1.2359798,-0.5289999,-8.302784,8.410927958,2.677347461,-3.649255338,-7.686395986,9.488525958
41:30.2,1.42E+12,1.3004956,-0.4514612,-7.9683795,8.086419348,2.642323293,-3.508281492,-7.713154342,9.440942882
41:30.2,1.42E+12,1.0059083,-0.563578,-7.7035804,7.789391674,2.601182847,-3.369373352,-7.73141337,9.385184936
41:30.2,1.42E+12,1.5358063,-0.59770703,-7.8020754,7.974229444,2.570002687,-3.229103046,-7.743523184,9.326220985
41:30.2,1.42E+12,1.8631755,-0.8652008,-7.898026,8.1608094,2.552626819,-3.096116592,-7.769263656,9.281940599
41:30.2,1.42E+12,2.1540208,-1.2981006,-7.753127,8.150818919,2.535583263,-2.985080494,-7.808727584,9.255889759
41:30.2,1.42E+12,2.4143293,-1.7103434,-7.783514,8.32690523,2.516243477,-2.875014376,-7.83812944,9.219125784
41:30.2,1.42E+12,2.901117,-2.219285,-7.910899,8.713439547,2.511100171,-2.769567656,-7.8638759,9.183660561
41:30.2,1.42E+12,3.1729517,-2.5909622,-8.017628,9.003503005,2.510333761,-2.666524934,-7.88188048,9.143798623
41:30.2,1.42E+12,3.543132,-2.955005,-8.204589,9.412816772,2.509342821,-2.572846742,-7.90647435,9.113048542
41:30.2,1.42E+12,3.7467086,-2.934797,-7.9665833,9.279941177,2.500873433,-2.490709542,-7.936974926,9.090350518
41:30.2,1.42E+12,3.69791,-3.1235545,-7.5567355,8.974150795,2.487434373,-2.422194018,-7.964574528,9.069691841
41:30.2,1.42E+12,3.7637732,-3.2962954,-7.267088,8.822818148,2.479021863,-2.354447898,-7.979390718,9.041431785
41:30.3,1.42E+12,3.7582347,-3.7553906,-7.178921,8.931080189,2.477360317,-2.28949497,-7.986794318,9.010141827
41:30.3,1.42E+12,4.016747,-4.400549,-7.2322106,9.370376627,2.482536551,-2.242872924,-8.008148916,9.000127953
41:30.3,1.42E+12,4.4436593,-5.0602274,-7.643555,10.18704777,2.501891299,-2.212950152,-8.033766636,9.008367988
41:30.3,1.42E+12,4.4970984,-5.4804034,-7.7299256,10.48858738,2.517318219,-2.203169488,-8.047855342,9.019270011
41:30.3,1.42E+12,4.469705,-5.665718,-7.6459503,10.51376142,2.527556921,-2.201319328,-8.055645148,9.028073335
41:30.4,1.42E+12,4.490362,-5.955665,-7.7113643,10.72839391,2.536178981,-2.215219428,-8.063581646,9.045000515
41:30.4,1.42E+12,4.5575724,-6.253845,-7.623048,10.86245388,2.542316219,-2.232071382,-8.059357434,9.053706316
41:30.4,1.42E+12,4.31822,-6.389313,-7.361392,10.66116489,2.543753219,-2.252875116,-8.051438904,9.060221317
41:30.4,1.42E+12,4.2135878,-6.546786,-6.9659142,10.44694643,2.543136495,-2.280561544,-8.039059648,9.066975641
41:30.4,1.42E+12,3.9300773,-6.5999255,-6.5864534,10.11859143,2.544319037,-2.30864914,-8.016833866,9.068118058
41:30.5,1.42E+12,3.721561,-6.669531,-6.3734465,9.947536395,2.535966405,-2.343155388,-7.985638742,9.062604689
41:30.5,1.42E+12,3.6218684,-6.449638,-6.317463,9.727594759,2.525116973,-2.382209174,-7.955174094,9.058118116
41:30.5,1.42E+12,3.6119888,-6.5460377,-5.759124,9.437403346,2.512501209,-2.429765288,-7.910521954,9.047624541
41:30.5,1.42E+12,3.4446368,-6.6601005,-5.6369777,9.380723796,2.502082875,-2.491865158,-7.866552388,9.045756806
41:30.5,1.42E+12,3.3220417,-6.736142,-5.8668995,9.530586542,2.498816663,-2.560051362,-7.830752828,9.055434003
41:30.6,1.42E+12,3.5804045,-7.2745724,-6.2671676,10.24773583,2.505064669,-2.64655647,-7.796575906,9.078185408
41:30.6,1.42E+12,3.7339852,-7.57889,-6.8337393,10.86656394,2.526422259,-2.740800496,-7.768605072,9.113202152
41:30.6,1.42E+12,3.2885115,-7.9472737,-7.2230797,11.2314891,2.549321639,-2.846462774,-7.748798266,9.159896227
41:30.6,1.42E+12,3.224744,-8.026758,-7.2479277,11.28540091,2.575645895,-2.962255974,-7.72439302,9.206319733
41:30.6,1.42E+12,3.1677127,-8.187224,-7.5805364,11.5986884,2.604580725,-3.100251,-7.710424068,9.267225206
41:30.7,1.42E+12,2.9397368,-7.9170365,-7.2735248,11.14565756,2.617349173,-3.242856452,-7.691344764,9.318549736
41:30.7,1.42E+12,2.71221,-7.7034307,-7.0221972,10.77080225,2.622258967,-3.384797286,-7.662149488,9.35688266
41:30.7,1.42E+12,2.8342063,-7.6245446,-6.9587293,10.70468679,2.632383913,-3.520106907,-7.634654674,9.397075153
41:30.7,1.42E+12,2.6417065,-7.443721,-6.503376,10.23139751,2.649547221,-3.651030655,-7.600956754,9.433139307
41:30.7,1.42E+12,2.7137067,-6.989266,-6.086044,9.656809765,2.677631815,-3.781068245,-7.550966704,9.452305523
41:30.8,1.42E+12,3.0469139,-7.0183053,-6.24172,9.874176531,2.715164765,-3.918763905,-7.505670884,9.478035648
41:30.8,1.42E+12,3.272345,-7.168443,-6.7403336,10.3695185,2.758855905,-4.06920406,-7.458004016,9.501524117
41:30.8,1.42E+12,3.2434552,-7.2399945,-6.5093637,10.2620338,2.803819403,-4.219530458,-7.41214837,9.529513883
41:30.8,1.42E+12,3.5872903,-7.2854996,-6.3023443,10.27943091,2.85683915,-4.375251632,-7.370367256,9.565936528
41:30.8,1.42E+12,3.5651362,-7.233857,-6.0686803,10.09295615,2.911487506,-4.52661387,-7.328951382,9.604019971
41:30.9,1.42E+12,3.4398468,-7.107969,-6.2454624,10.06784833,2.973329904,-4.671527523,-7.28796959,9.639317343
41:30.9,1.42E+12,3.3328195,-6.7542543,-6.1269093,9.709101634,3.023373839,-4.811267928,-7.236189276,9.658329216
41:31.0,1.42E+12,3.8868172,-6.579418,-6.1376867,9.801392105,3.090135006,-4.947119423,-7.18777097,9.682780555
41:31.0,1.42E+12,4.425098,-6.549181,-6.176456,10.03104545,3.167613888,-5.070906009,-7.14300207,9.714589353
41:31.0,1.42E+12,4.6407995,-6.3935046,-6.661298,10.33377047,3.245443044,-5.188184127,-7.11016935,9.754195075
41:31.0,1.42E+12,4.372707,-6.2719574,-6.788084,10.22428973,3.311880886,-5.303198952,-7.06902291,9.780224056
41:31.0,1.42E+12,4.0853047,-6.530919,-7.062314,10.45078449,3.369762524,-5.422611635,-7.03649257,9.813480007
41:31.0,1.42E+12,3.9683976,-6.7463207,-7.2771173,10.68725684,3.42441088,-5.546958051,-7.015979236,9.859006584
41:31.0,1.42E+12,3.7904177,-6.677913,-7.276069,10.57841994,3.474209322,-5.671487087,-7.002133026,9.908846596
41:31.0,1.42E+12,4.0770717,-6.224207,-7.9014688,10.85340848,3.53563259,-5.784699667,-7.006090794,9.970126932
41:31.1,1.42E+12,4.127367,-5.809569,-8.154443,10.82964408,3.587463804,-5.888936906,-7.013138146,10.02723523
41:31.1,1.42E+12,3.9890547,-5.622458,-7.8394976,10.43945947,3.629981388,-5.98408205,-7.011967578,10.07280823
41:31.1,1.42E+12,3.8892124,-5.29434,-7.874974,10.25530227,3.66468522,-6.064006838,-7.014404518,10.11489789
41:31.1,1.42E+12,4.1592507,-5.1287847,-7.8366537,10.24777732,3.699583648,-6.132375664,-7.015467312,10.15331534
41:31.1,1.42E+12,4.0770717,-4.8298564,-8.025112,10.21530465,3.723102742,-6.184587092,-7.017751572,10.18335264
41:31.2,1.42E+12,3.6654277,-4.3263035,-7.753127,9.605375603,3.732952262,-6.219293918,-7.012461552,10.19539009
41:31.2,1.42E+12,3.4846036,-3.6935692,-7.7270813,9.246226317,3.731781694,-6.234065202,-7.002911398,10.19205828
41:31.2,1.42E+12,3.1361284,-3.4558635,-7.8260255,9.111803828,3.71957009,-6.244486532,-7.000100242,10.18869553
41:31.2,1.42E+12,2.8351045,-3.0976584,-7.533085,8.624423152,3.70231398,-6.24396861,-6.999627232,10.18170098
41:31.2,1.42E+12,2.7246342,-2.4891737,-7.6399627,8.484612383,3.6815312,-6.227826176,-7.007084726,10.17493687
41:31.3,1.42E+12,2.510579,-2.42361,-7.778874,8.525712466,3.656578086,-6.201190564,-7.019083786,10.16682951
41:31.3,1.42E+12,2.6505382,-2.531835,-8.343499,9.11315076,3.62925391,-6.163816284,-7.041309554,10.16168499
41:31.3,1.42E+12,2.4147785,-2.7045758,-8.816516,9.532934482,3.588676294,-6.116703252,-7.064768774,10.14860273
41:31.3,1.42E+12,2.2854474,-1.8030007,-8.571625,9.052449198,3.544443274,-6.043155198,-7.081602762,10.11987996
41:31.3,1.42E+12,1.5597565,-1.1761043,-8.827443,9.041007222,3.486244304,-5.953362924,-7.105232616,10.09042488
41:31.4,1.42E+12,1.0644364,-0.89903045,-8.45412,8.568163489,3.417725792,-5.852230233,-7.12008773,10.04722027
41:31.4,1.42E+12,0.67195266,-0.47316605,-8.026309,8.068273833,3.340013397,-5.736616654,-7.12815295,9.991336671
41:31.4,1.42E+12,0.5218149,-0.11526032,-7.432045,7.451232691,3.264085295,-5.6111356,-7.12956601,9.927138027
41:31.4,1.42E+12,0.58198977,0.19564316,-7.421866,7.447219834,3.191453335,-5.476287017,-7.138685046,9.867143495
41:31.4,1.42E+12,0.74125856,0.54471725,-7.597601,7.653085789,3.12767696,-5.333394162,-7.158907998,9.817833382
41:31.5,1.42E+12,0.8821156,0.65114594,-8.476124,8.546741896,3.070888052,-5.186980623,-7.200961548,9.789817492
41:31.5,1.42E+12,1.0553055,0.9116043,-8.670869,8.782292486,3.019556794,-5.039755777,-7.248029668,9.770911446
41:31.5,1.42E+12,0.9979747,0.98255676,-8.94465,9.053625512,2.967276512,-4.889183888,-7.311740188,9.76323589
41:31.6,1.42E+12,0.77433974,0.57225996,-8.989257,9.040676131,2.913870571,-4.744536679,-7.378785774,9.756434936
41:31.6,1.42E+12,0.5108876,0.20282821,-8.786279,8.803456372,2.857647489,-4.605757275,-7.437173364,9.741892333
41:31.6,1.42E+12,0.5888754,-0.120200045,-8.923693,8.943909606,2.797816907,-4.462669828,-7.490303872,9.715815809
41:31.6,1.42E+12,0.4327501,-0.26509872,-8.495883,8.511026843,2.731792205,-4.316394002,-7.523546746,9.668705067
41:31.6,1.42E+12,0.5125342,-0.29817992,-8.255632,8.276899316,2.676272659,-4.163412127,-7.544197792,9.609613271
41:31.6,1.42E+12,0.79799056,-0.05867798,-7.9305086,7.970771524,2.62773759,-4.004050526,-7.55784941,9.543320683
41:31.6,1.42E+12,1.0011182,-0.18995498,-7.5429645,7.611480407,2.5844057,-3.844105146,-7.557097972,9.463576523
41:31.7,1.42E+12,0.78975767,0.015717316,-7.5386233,7.579894819,2.541406117,-3.685450069,-7.562399942,9.392261268
41:31.7,1.42E+12,0.6101312,0.104482725,-7.557035,7.582344935,2.499364541,-3.529291801,-7.573096698,9.328492122
41:31.7,1.42E+12,1.6055613,-0.3600014,-8.437354,8.596299821,2.474791641,-3.384000937,-7.602669192,9.286324383
41:31.7,1.42E+12,2.8009753,-1.3874648,-9.483978,9.985807925,2.477977017,-3.262875813,-7.662281232,9.281412591
41:31.7,1.42E+12,3.386857,-2.6214986,-9.497749,10.41874711,2.491440023,-3.175520465,-7.730515332,9.296651338
41:31.8,1.42E+12,3.1192136,-3.6471658,-9.017398,10.2149292,2.492886017,-3.108097675,-7.786028892,9.303466391
41:31.8,1.42E+12,2.5950036,-3.7643719,-8.538544,9.685621979,2.479339189,-3.040016253,-7.8219931,9.289788461
41:31.8,1.42E+12,2.156865,-3.5976188,-8.099507,9.121235733,2.457607385,-2.967168739,-7.853795966,9.2669725
41:31.8,1.42E+12,2.0613635,-2.954556,-7.4817414,8.303919256,2.427088849,-2.880549867,-7.877383908,9.227462267
41:31.8,1.42E+12,2.1448896,-2.33709,-6.817872,7.5197021,2.398683917,-2.782614527,-7.892367742,9.175997186
41:31.9,1.42E+12,2.4948618,-2.151476,-6.6925826,7.459480293,2.379784217,-2.683484667,-7.901310146,9.123829825
41:31.9,1.42E+12,2.8159442,-2.2276676,-6.4397583,7.373095119,2.369446711,-2.592952933,-7.907567126,9.077109695
41:31.9,1.42E+12,3.4751732,-3.376828,-6.74198,8.302655625,2.361213831,-2.528901133,-7.919652992,9.047134965
41:31.9,1.42E+12,4.0026765,-4.6396017,-7.4423733,9.64034457,2.352765401,-2.490709547,-7.944971338,9.039320947
41:31.9,1.42E+12,4.6086164,-5.6558385,-7.738907,10.63571981,2.352121739,-2.475956225,-7.966523518,9.045359934
41:32.0,1.42E+12,4.6330156,-6.5637007,-8.225695,11.4982198,2.357327911,-2.481791091,-7.995275738,9.070838536
41:32.0,1.42E+12,4.5581713,-7.273375,-8.404722,12.01325357,2.366785243,-2.496640211,-8.022123898,9.102087917
41:32.0,1.42E+12,4.4312353,-7.3726187,-8.443642,12.05348261,2.376041997,-2.509166171,-8.045454392,9.129412433
41:32.0,1.42E+12,4.3114843,-6.893016,-8.386161,11.68033659,2.386463329,-2.513468231,-8.067656232,9.151450766
41:32.1,1.42E+12,4.133205,-7.057973,-7.923174,11.38749545,2.387585995,-2.530143551,-8.068090336,9.162132505
41:32.1,1.42E+12,3.8950503,-6.917415,-7.2355037,10.74125509,2.382939661,-2.552300471,-8.04971155,9.160364725
41:32.1,1.42E+12,3.9077737,-6.6609983,-6.7705708,10.2703565,2.381314041,-2.573071277,-8.028333014,9.156982666
41:32.1,1.42E+12,3.9522314,-6.7961674,-6.4201493,10.15018923,2.382574421,-2.603107825,-7.99923652,9.154880405
41:32.1,1.42E+12,3.5810032,-6.633306,-6.4993343,9.953174305,2.371009471,-2.633198251,-7.972490132,9.148988345
41:32.1,1.42E+12,3.354225,-6.8931656,-6.54963,10.08286718,2.356552537,-2.674464435,-7.942980492,9.146339595
41:32.2,1.42E+12,3.39015,-6.846762,-6.5845075,10.08598066,2.351046983,-2.724873605,-7.919608102,9.155951696
41:32.2,1.42E+12,3.603756,-7.2013745,-6.7662296,10.51801859,2.353430031,-2.795029711,-7.900391068,9.181387542
41:32.3,1.42E+12,3.524421,-7.246281,-7.148535,10.77180042,2.361195883,-2.870838061,-7.886841258,9.214587474
41:32.3,1.42E+12,3.438799,-7.3076534,-7.129524,10.77298702,2.373269773,-2.955037961,-7.878770038,9.257558751
41:32.3,1.42E+12,3.4611025,-7.3649845,-6.8542466,10.63968626,2.387999139,-3.052554177,-7.863055716,9.300660229
41:32.3,1.42E+12,3.2741413,-7.421417,-6.6940794,10.51704001,2.403270385,-3.152510317,-7.841359824,9.340486779
41:32.3,1.42E+12,2.8258238,-7.3112464,-6.668333,10.29107716,2.406776097,-3.248098545,-7.807856504,9.364045307
41:32.3,1.42E+12,2.9124935,-7.306007,-6.5003824,10.20369188,2.416730397,-3.340127169,-7.761533832,9.377460455
41:32.3,1.42E+12,3.1078372,-7.3000197,-6.759344,10.42293965,2.433178193,-3.450067549,-7.725288212,9.404870264
41:32.3,1.42E+12,3.1865735,-7.2004766,-7.072942,10.5843102,2.465714533,-3.570554995,-7.690198192,9.435736324
41:32.4,1.42E+12,2.906356,-7.0961437,-6.5574136,10.08968948,2.502552925,-3.69449726,-7.652264064,9.466166844
41:32.4,1.42E+12,3.2560291,-6.8286495,-5.9237814,9.608504856,2.554234454,-3.821606929,-7.610213512,9.496971464
41:32.4,1.42E+12,3.710933,-6.8445168,-6.5488815,10.17380376,2.618016816,-3.956192058,-7.592550242,9.551422886
41:32.4,1.42E+12,3.5423837,-7.0311785,-6.664591,10.31516973,2.677224695,-4.100728492,-7.577404742,9.608781884
41:32.4,1.42E+12,3.6269577,-7.433392,-7.4802446,11.15186971,2.734938677,-4.260290677,-7.575057614,9.678757562
41:32.5,1.42E+12,4.1189847,-7.600295,-7.2962775,11.31221395,2.799676059,-4.425319495,-7.551460684,9.734067003
41:32.5,1.42E+12,4.302503,-6.787485,-6.312523,10.21907194,2.864620009,-4.579301281,-7.504293764,9.762802592
41:32.6,1.42E+12,3.909121,-6.4039826,-5.5814433,9.351188665,2.922842935,-4.727032069,-7.43702963,9.768753855
41:32.6,1.42E+12,3.9079235,-6.412066,-5.6979012,9.426162239,2.985514611,-4.866718588,-7.371202514,9.776463577
41:32.6,1.42E+12,4.3911185,-6.6951275,-6.1641817,10.104642,3.063119229,-5.004677702,-7.318760568,9.80248729
41:32.6,1.42E+12,4.906946,-6.9720516,-6.9909124,11.02544687,3.149480641,-5.141714733,-7.280104956,9.844118035
41:32.6,1.42E+12,4.834796,-6.400989,-7.4971595,10.97976835,3.237521559,-5.264432539,-7.260130486,9.893492865
41:32.6,1.42E+12,4.699178,-6.006859,-7.5914636,10.76080613,3.321254435,-5.37860612,-7.246847118,9.943171002
41:32.6,1.42E+12,4.868476,-5.883066,-7.4239616,10.65024554,3.402664143,-5.495093881,-7.236716178,9.996760482
41:32.6,1.42E+12,4.673731,-5.744155,-7.048692,10.22365576,3.476116399,-5.606177881,-7.226830728,10.04900399
41:32.7,1.42E+12,4.197721,-5.4293594,-6.39081,9.377700014,3.544275666,-5.715079416,-7.203874462,10.08496009
41:32.7,1.42E+12,3.8887632,-5.114115,-6.8000593,9.355076587,3.609848306,-5.81945137,-7.188734948,10.12041473
41:32.7,1.42E+12,3.7107835,-4.941524,-7.591763,9.788944738,3.65195275,-5.911081822,-7.171823128,10.14426762
41:32.7,1.42E+12,3.6881804,-4.77507,-8.379575,10.32575641,3.669696852,-5.978833926,-7.149735068,10.15106659
41:32.7,1.42E+12,3.9507344,-4.464466,-8.570128,10.43967686,3.6809744,-6.015693274,-7.131182648,10.15148519
41:32.8,1.42E+12,3.7943096,-4.28469,-7.8601546,9.723033687,3.69447632,-6.028443758,-7.10803778,10.14164728
41:32.8,1.42E+12,3.6083963,-4.1866436,-7.3766603,9.217571571,3.714744174,-6.036889192,-7.084800106,10.13228627
41:32.8,1.42E+12,3.781137,-3.936065,-7.2456827,9.071357257,3.747229614,-6.043658116,-7.06772362,10.1312887
41:32.9,1.42E+12,3.3678465,-3.2437546,-7.620503,8.940715851,3.773359274,-6.049442088,-7.070498852,10.14402463
41:32.9,1.42E+12,3.2777338,-2.887645,-7.452852,8.638694082,3.796016158,-6.060453188,-7.083198452,10.16640447
41:32.9,1.42E+12,3.179538,-2.7499316,-7.4515047,8.555495777,3.809709682,-6.0724223,-7.098376894,10.18832478
41:32.9,1.42E+12,2.7318192,-2.362088,-7.5417666,8.361850232,3.808027182,-6.075110708,-7.12041706,10.20809988
41:32.9,1.42E+12,2.0498374,-1.8758991,-7.7853103,8.266310378,3.779520466,-6.04509213,-7.141283666,10.20737298
41:32.9,1.42E+12,1.5247293,-1.5878979,-8.188572,8.47932371,3.729961522,-5.984058054,-7.15620764,10.18415256
41:32.9,1.42E+12,1.0964699,-1.3263917,-8.1159725,8.296419156,3.659718592,-5.897469118,-7.16374895,10.13736655
41:33.0,1.42E+12,0.92178315,-0.9541159,-8.013736,8.122806535,3.585493943,-5.785277422,-7.15950977,10.06985828
41:33.0,1.42E+12,0.739612,-0.8626561,-8.073012,8.152590031,3.509122757,-5.657063044,-7.15287557,9.992645013
41:33.0,1.42E+12,0.63872176,-0.6753955,-7.999066,8.052898946,3.433272486,-5.52311858,-7.14398405,9.91263334
41:33.0,1.42E+12,0.5164261,-0.24040009,-8.4415455,8.46074338,3.357371322,-5.390066262,-7.14509174,9.848241476
41:33.0,1.42E+12,0.59980273,-0.013621674,-8.343649,8.36519142,3.286703277,-5.249179235,-7.15350124,9.787795395
41:33.1,1.42E+12,0.37092865,0.20507355,-8.647218,8.657599111,3.216220844,-5.106729464,-7.181735526,9.746122276
41:33.1,1.42E+12,0.649649,0.32976425,-8.484656,8.51587786,3.15105835,-4.966914213,-7.21601723,9.711032703
41:33.1,1.42E+12,0.5749544,0.18396744,-8.364756,8.386510569,3.08351281,-4.827311516,-7.254909364,9.67575913
41:33.1,1.42E+12,0.11735596,0.05733078,-8.034093,8.035154608,3.014239865,-4.693498781,-7.285604538,9.637398736
41:33.1,1.42E+12,0.18905686,0.24429199,-8.146809,8.152663243,2.950936502,-4.550749629,-7.317548118,9.598794657
41:33.2,1.42E+12,0.26075774,-0.121846616,-8.331974,8.336943801,2.888348657,-4.416251321,-7.352497448,9.56381392
41:33.2,1.42E+12,0.77074724,-0.13337265,-8.291108,8.327923597,2.831688482,-4.274891284,-7.382995016,9.52001202
41:33.2,1.42E+12,1.1883788,-0.27572662,-8.751102,8.835726091,2.784967638,-4.135480197,-7.415046356,9.481290533
41:33.2,1.42E+12,1.5615528,-0.8596623,-8.507559,8.692296967,2.747422714,-4.006520375,-7.442607056,9.439676732
41:33.2,1.42E+12,1.6308587,-1.1566447,-8.203541,8.443672898,2.710817838,-3.882353579,-7.469592944,9.395756465
41:33.3,1.42E+12,1.7610878,-1.2073892,-7.7674975,8.055633826,2.680556768,-3.758073023,-7.491061306,9.346528341
41:33.3,1.42E+12,1.7136365,-1.4394068,-8.05026,8.355544749,2.658313022,-3.640636231,-7.518699846,9.307817693
41:33.3,1.42E+12,1.9570303,-1.6793578,-8.627758,9.004910789,2.639203758,-3.528103247,-7.561247358,9.283842071
41:33.3,1.42E+12,2.1077669,-2.0122654,-8.69437,9.169730805,2.619202352,-3.422348161,-7.599947878,9.258777894
41:33.3,1.42E+12,2.1589603,-2.0600162,-7.926916,8.469992538,2.598650088,-3.319538953,-7.617027358,9.216491541
41:33.4,1.42E+12,2.40445,-2.0678,-7.3468723,8.00210655,2.588611968,-3.218972079,-7.632816532,9.174739882
41:33.4,1.42E+12,2.5276437,-2.617457,-7.2611003,8.121800378,2.57404426,-3.134748229,-7.65956291,9.145005793
41:33.4,1.42E+12,2.8948302,-3.3175511,-7.9218264,9.063195943,2.557722204,-3.064208915,-7.687021808,9.122793637
41:33.4,1.42E+12,3.4492772,-3.7732036,-8.280181,9.731185745,2.555860074,-2.999049417,-7.719333608,9.111113957
41:33.4,1.42E+12,3.7333863,-3.8835242,-7.5717044,9.29250456,2.557988646,-2.928052061,-7.721162804,9.073926654
41:33.5,1.42E+12,3.83263,-4.2040076,-7.2097573,9.183862637,2.552261552,-2.860126313,-7.7194324,9.031359628
41:33.5,1.42E+12,3.9625597,-4.514462,-7.598948,9.686395472,2.545462686,-2.814665853,-7.7451609,9.020706098
41:33.5,1.42E+12,3.7785923,-4.9076943,-7.732171,9.907052613,2.542852112,-2.784740087,-7.788175454,9.031823377
41:33.5,1.42E+12,4.1327558,-5.551206,-7.479945,10.19044335,2.547348758,-2.767522887,-7.82381633,9.047108999
41:33.5,1.42E+12,4.2312512,-6.074518,-7.3334002,10.42026939,2.544151412,-2.755110697,-7.8472007,9.053421547
41:33.6,1.42E+12,4.231401,-6.2674665,-7.4667726,10.62725665,2.530640512,-2.741018995,-7.856717904,9.045457743
41:33.6,1.42E+12,4.313879,-6.4378123,-7.4452176,10.74645264,2.520222172,-2.741755461,-7.855679066,9.040791429
41:33.6,1.42E+12,4.008664,-6.3291383,-7.0873117,10.31297076,2.506411892,-2.748201047,-7.845596028,9.031834721
41:33.6,1.42E+12,3.8109252,-6.2888722,-6.803502,10.01801896,2.485260876,-2.756317171,-7.833186836,9.01919019
41:33.6,1.42E+12,3.660039,-6.541996,-6.786737,10.11204214,2.464987036,-2.772273991,-7.827947736,9.016957917
41:33.7,1.42E+12,3.9279816,-6.9495983,-6.9037933,10.55406642,2.459592248,-2.802678769,-7.838207402,9.040485245
41:33.7,1.42E+12,3.9645057,-7.3765106,-7.296128,11.10692117,2.461107098,-2.847926681,-7.848128776,9.075522137
41:33.7,1.42E+12,4.0180945,-7.5061407,-7.3229218,11.22997842,2.467253318,-2.899219015,-7.842751952,9.104342811
41:33.7,1.42E+12,3.8993912,-7.6814265,-7.224876,11.24314894,2.471477534,-2.957346145,-7.819657972,9.122690661
41:33.7,1.42E+12,3.7488043,-7.65089,-7.198381,11.15375903,2.467438932,-3.021074625,-7.792223032,9.136972305
41:33.8,1.42E+12,3.4148488,-7.4473133,-6.990613,10.7699739,2.459849716,-3.084327091,-7.7748322,9.157911109
41:33.8,1.42E+12,3.138673,-7.178323,-6.854097,10.40952616,2.45045525,-3.144160679,-7.764380934,9.181750201
41:33.9,1.42E+12,3.1452594,-6.863677,-6.7355433,10.11781904,2.437737698,-3.202712919,-7.754178146,9.202679436
41:33.9,1.42E+12,3.0987062,-6.887777,-6.728957,10.11544929,2.432354892,-3.275593367,-7.736347226,9.226174105
41:33.9,1.42E+12,2.9485683,-6.8868785,-7.114855,10.3317139,2.425771582,-3.355578037,-7.729587286,9.260034502
41:33.9,1.42E+12,3.288212,-6.953191,-7.095395,10.46440794,2.427945062,-3.439643225,-7.722465092,9.298212745
41:33.9,1.42E+12,3.6949165,-7.2504725,-6.911577,10.6766875,2.447207008,-3.537410915,-7.7098613,9.34450949
41:33.9,1.42E+12,3.6154318,-7.3389387,-6.7844915,10.62829682,2.478518896,-3.646671707,-7.689844924,9.391749219
41:33.9,1.42E+12,3.1975007,-7.026987,-6.5617547,10.13208674,2.511974324,-3.755453489,-7.657308578,9.42480448
41:33.9,1.42E+12,3.0749056,-6.7223706,-6.0965223,9.581904565,2.551543038,-3.863373067,-7.616919574,9.450514188
41:34.0,1.42E+12,3.1015503,-6.850205,-5.7993903,9.496201907,2.595138381,-3.981294849,-7.57263266,9.477982095
41:34.0,1.42E+12,3.0053005,-6.843469,-5.7669077,9.440451444,2.640452151,-4.100911107,-7.526510574,9.503739323
41:34.0,1.42E+12,3.2654595,-6.9153194,-6.2219615,9.858888023,2.692986906,-4.225709585,-7.490968484,9.539859105
41:34.0,1.42E+12,3.911067,-7.1581144,-6.6547112,10.52711869,2.760879724,-4.364063871,-7.455231798,9.581186611
41:34.0,1.42E+12,3.7697608,-7.0932994,-6.581813,10.38490516,2.824278885,-4.505657426,-7.419995078,9.621580886
41:34.1,1.42E+12,4.003874,-7.2078114,-6.57837,10.54791468,2.896937792,-4.653915125,-7.378618118,9.659387197
41:34.1,1.42E+12,4.1347017,-7.100185,-6.606362,10.54288405,2.966638846,-4.80251411,-7.341052238,9.699927321
41:34.1,1.42E+12,4.3523493,-7.0765343,-6.738238,10.69692168,3.042186744,-4.947724144,-7.308521878,9.746135543
41:34.1,1.42E+12,4.7157936,-6.9903135,-7.064559,11.00050844,3.134155497,-5.08867703,-7.289131198,9.80544262
41:34.2,1.42E+12,4.683311,-7.2895412,-7.438631,11.41945901,3.22404058,-5.239353694,-7.274967638,9.870778535
41:34.2,1.42E+12,5.0111294,-7.2085595,-7.8192897,11.75653177,3.319048013,-5.381087951,-7.264713952,9.939170295
41:34.2,1.42E+12,5.046905,-6.893615,-7.6413097,11.46223328,3.404571168,-5.516292798,-7.251717986,10.00185649
41:34.2,1.42E+12,4.6277766,-6.23229,-7.3745646,10.70709848,3.473359124,-5.635424066,-7.224187238,10.03928394
41:34.2,1.42E+12,4.71759,-6.2420197,-7.146439,10.59670023,3.536479868,-5.743071214,-7.196964838,10.077372
41:34.2,1.42E+12,4.388873,-6.1598406,-7.5497003,10.6866186,3.591640154,-5.843135132,-7.183888024,10.12223092
41:34.3,1.42E+12,4.560267,-6.1909757,-8.144264,11.20059156,3.647623738,-5.942806862,-7.191423354,10.18513007
41:34.3,1.42E+12,4.417763,-5.4512143,-7.5902658,10.33656143,3.701706268,-6.023043012,-7.18222347,10.2247504
41:34.3,1.42E+12,4.0987763,-5.071604,-6.8491573,9.456854129,3.744541188,-6.090887936,-7.146651456,10.23378927
41:34.3,1.42E+12,4.249064,-4.6484337,-6.77566,9.250516157,3.78736713,-6.143611302,-7.108277256,10.23540498
41:34.3,1.42E+12,3.821104,-4.2165813,-6.6795597,8.774788398,3.820610004,-6.186742604,-7.08333013,10.24150089
41:34.4,1.42E+12,3.4251773,-3.7149746,-6.6714764,8.369078394,3.84102455,-6.219686096,-7.069822212,10.24884033
41:34.4,1.42E+12,2.909799,-3.2347732,-6.147566,7.531484289,3.848667656,-6.23203242,-7.047551526,10.23703401
41:34.4,1.42E+12,2.6283844,-2.481839,-6.097121,7.08821655,3.84333874,-6.215318178,-7.011057418,10.19753442
41:34.4,1.42E+12,2.7731333,-2.1116588,-7.4389305,8.21505071,3.829815862,-6.182087282,-6.994232408,10.16721172
41:34.4,1.42E+12,2.637665,-1.971101,-8.552166,9.164172581,3.807901436,-6.143838818,-7.01384164,10.16464508
41:34.5,1.42E+12,2.090852,-0.97432387,-8.342901,8.655920874,3.773065876,-6.079245143,-7.036504514,10.15408625
41:34.5,1.42E+12,1.6482224,-0.033679962,-8.553063,8.710491266,3.72677913,-5.989629503,-7.055586814,10.13456816
41:34.5,1.42E+12,1.3620176,-0.34323624,-9.5440035,9.646808066,3.678447636,-5.898340341,-7.091823464,10.12936327
41:34.6,1.42E+12,1.3778846,-1.3895603,-9.53128,9.730094667,3.623350212,-5.815107427,-7.132850164,10.1201563
41:34.6,1.42E+12,2.2579048,-1.1856843,-8.527167,8.900368441,3.583883284,-5.717330753,-7.1567255,10.08975828
41:34.6,1.42E+12,1.7375866,-0.65339124,-9.105565,9.292870454,3.534006996,-5.605049248,-7.189501348,10.06307055
41:34.6,1.42E+12,0.6268964,-0.65099627,-8.988508,9.033829271,3.460267344,-5.489312928,-7.220367156,10.02881809
41:34.6,1.42E+12,0.33784744,-0.46538222,-7.669451,7.690981741,3.386851013,-5.372037806,-7.232009942,9.976378307
41:34.6,1.42E+12,0.68048495,-0.07499405,-7.218589,7.250980004,3.324242208,-5.247760243,-7.240311682,9.921037528
41:34.6,1.42E+12,0.46643007,-0.124391325,-7.297475,7.313424067,3.260370029,-5.11940815,-7.250526442,9.865065167
41:34.7,1.42E+12,0.14040802,0.5632787,-7.3322024,7.355147132,3.184618558,-4.96915061,-7.259094624,9.801086781
41:34.7,1.42E+12,0.14819184,1.4656023,-6.7864375,6.944471532,3.10829228,-4.792308352,-7.248900814,9.717837788
41:34.7,1.42E+12,0.43050477,1.2513977,-7.0129166,7.136688994,3.036540486,-4.617157584,-7.24270071,9.635972
41:34.7,1.42E+12,0.8523276,-0.002993774,-8.298593,8.342248922,2.975599214,-4.463588929,-7.26417505,9.577953999
41:34.7,1.42E+12,1.5036232,-1.9806812,-9.625134,9.941186311,2.930695592,-4.350184753,-7.31271011,9.553702545
41:34.8,1.42E+12,2.0347188,-2.8831544,-10.208471,10.80118234,2.903092992,-4.258901575,-7.37706727,9.554326714
41:34.8,1.42E+12,2.4983048,-1.8609302,-9.961784,10.43751544,2.890285628,-4.152553719,-7.43922101,9.554886499
41:34.8,1.42E+12,2.0806732,-0.552052,-8.997789,9.251711694,2.868993904,-4.026321219,-7.484465924,9.537564352
41:34.8,1.42E+12,1.1044034,0.4779561,-8.06433,8.153622953,2.829107848,-3.879006557,-7.511173384,9.498327826
41:34.8,1.42E+12,0.7390132,0.44233018,-7.4827895,7.532193253,2.784916746,-3.732422383,-7.518532074,9.442337413
41:34.9,1.42E+12,0.8821156,-0.18127304,-6.752608,6.812393313,2.736794818,-3.596984024,-7.511676334,9.36929712
41:34.9,1.42E+12,1.4938934,-1.1922706,-6.7422795,7.007964007,2.692774356,-3.475819986,-7.508290384,9.29592265
41:34.9,1.42E+12,2.350113,-2.1463866,-6.83329,7.538160172,2.66746798,-3.371968944,-7.509266354,9.234119917
41:34.9,1.42E+12,2.6954448,-2.9693751,-7.0696487,8.127886804,2.657426862,-3.290816706,-7.519424234,9.194035919
41:34.9,1.42E+12,3.2903078,-3.3985326,-7.2130504,8.625789548,2.661734906,-3.224339946,-7.541754796,9.174913618
41:35.0,1.42E+12,3.5961218,-3.9151084,-7.414531,9.123345644,2.671626336,-3.165638014,-7.57405761,9.167456493
41:35.0,1.42E+12,3.7770956,-4.5283833,-7.1648507,9.279428433,2.687062238,-3.1193363,-7.60201647,9.164236033
41:35.0,1.42E+12,3.7594323,-5.057533,-6.791976,9.265144858,2.696941694,-3.082180572,-7.61341676,9.152361169
41:35.0,1.42E+12,3.9501357,-5.9501266,-7.6184072,10.442591,2.697723068,-3.058020816,-7.63269068,9.150670616
41:35.0,1.42E+12,4.517007,-7.2634954,-8.796308,12.26934196,2.712667992,-3.061424736,-7.67698058,9.188359352
41:35.1,1.42E+12,4.468508,-7.4964113,-8.981922,12.52352462,2.721960672,-3.067196734,-7.72505162,9.22787155
41:35.1,1.42E+12,4.2893305,-6.5086155,-7.850724,11.0631957,2.725053248,-3.055365344,-7.74993886,9.238277783
41:35.1,1.42E+12,4.0641985,-5.6866746,-6.8442173,9.782601285,2.719290232,-3.02756815,-7.752058446,9.219991375
41:35.2,1.42E+12,4.3825865,-6.1210713,-6.520141,9.959257851,2.71262609,-3.010183306,-7.741170086,9.199166364
41:35.2,1.42E+12,4.6527743,-6.715036,-7.4549475,11.05966814,2.712015356,-2.998693202,-7.741496416,9.191970546
41:35.2,1.42E+12,4.620741,-7.019054,-7.736811,11.4226359,2.704207588,-2.994903092,-7.739846842,9.185292629
41:35.2,1.42E+12,4.675677,-7.295379,-7.4161777,11.40544615,2.696783028,-3.002938372,-7.735344202,9.184156886
41:35.2,1.42E+12,4.619394,-7.7462416,-7.12189,11.4919266,2.696615376,-3.033217404,-7.73029071,9.199853449
41:35.2,1.42E+12,4.8359933,-7.8213854,-6.8615813,11.47354342,2.698983442,-3.064804718,-7.724593556,9.217390313
41:35.2,1.42E+12,4.6247826,-7.04974,-6.820866,10.84489102,2.703701634,-3.082602706,-7.71001687,9.220555761
41:35.3,1.42E+12,4.093238,-6.71309,-6.8156266,10.40542842,2.694361054,-3.093044992,-7.683444122,9.204652498
41:35.3,1.42E+12,3.6568954,-6.6596513,-6.5728316,10.04619105,2.679143702,-3.117213732,-7.663095438,9.198845091
41:35.3,1.42E+12,3.218008,-6.636599,-6.2882733,9.692388915,2.661528336,-3.148513632,-7.651877758,9.203555786
41:35.3,1.42E+12,3.0374835,-6.615942,-5.961054,9.409099816,2.637296726,-3.187863798,-7.635585638,9.206727459
41:35.3,1.42E+12,3.0000613,-6.981931,-6.0689793,9.725237171,2.620875872,-3.243170792,-7.62337403,9.225736435
41:35.4,1.42E+12,2.9579988,-7.083869,-6.258186,9.904334855,2.611532302,-3.31054868,-7.615108222,9.256441564
41:35.4,1.42E+12,3.1243029,-7.362889,-6.4571223,10.27948595,2.61582238,-3.393110996,-7.621299348,9.311401597
41:35.4,1.42E+12,3.286266,-7.6712475,-6.548582,10.60808695,2.628980012,-3.496899166,-7.630328568,9.381799005
41:35.4,1.42E+12,3.0371842,-7.560328,-6.504424,10.42547739,2.63426103,-3.60587255,-7.611638438,9.426007539
41:35.4,1.42E+12,3.1243029,-7.4401283,-6.2748013,10.22203058,2.643993788,-3.715253096,-7.566091144,9.447164699
41:35.5,1.42E+12,2.6677523,-7.200327,-5.902376,9.685022131,2.655531794,-3.839773159,-7.517280644,9.467746724
41:35.5,1.42E+12,2.8722272,-7.081324,-5.891,9.64876778,2.68001189,-3.98072604,-7.464039384,9.486512254
41:35.5,1.42E+12,3.1692095,-7.2323604,-5.9613533,9.893869768,2.716155728,-4.118508523,-7.39238638,9.491453488
41:35.5,1.42E+12,3.0518537,-7.1269794,-6.1734624,9.910564282,2.74963511,-4.233256905,-7.325230028,9.495062881
41:35.5,1.42E+12,3.282075,-6.863078,-6.008056,9.693843038,2.770118514,-4.346804779,-7.274847808,9.510932373
41:35.6,1.42E+12,3.107987,-6.9364257,-6.0240726,9.698609971,2.797526522,-4.472465468,-7.21321796,9.519047163
41:35.6,1.42E+12,3.2081287,-7.253317,-6.420449,10.20415908,2.849151168,-4.604511883,-7.16185678,9.542453759
41:35.7,1.42E+12,3.3438964,-7.472311,-6.652017,10.5482892,2.909272147,-4.744650458,-7.1415081,9.599599908
41:35.7,1.42E+12,3.0575418,-7.4142323,-6.974447,10.62837304,2.956813284,-4.891435223,-7.13662526,9.667147769
41:35.7,1.42E+12,3.0958622,-7.141499,-6.8305955,10.35579092,3.009401927,-5.031777377,-7.12728767,9.727995106
41:35.7,1.42E+12,3.2403116,-7.382498,-6.700666,10.48331154,3.071399998,-5.190692911,-7.114656942,9.790558394
41:35.7,1.42E+12,3.849395,-7.628736,-7.101233,11.11048896,3.145424061,-5.372579677,-7.120952852,9.873878743
41:35.7,1.42E+12,4.2330475,-7.693701,-7.5390725,11.57364853,3.221474916,-5.551481651,-7.13147597,9.962617934
41:35.7,1.42E+12,4.173172,-7.796986,-7.9525127,11.89330961,3.287891804,-5.707361495,-7.124554364,10.03363915
41:35.7,1.42E+12,4.019741,-7.926467,-7.522457,11.64364875,3.33821416,-5.826277211,-7.082500824,10.0676884
41:35.8,1.42E+12,3.6925213,-7.3637867,-6.773714,10.66504897,3.37137021,-5.915889857,-7.013805684,10.06496573
41:35.8,1.42E+12,3.169509,-6.310128,-6.811286,9.811071279,3.384794294,-6.004873813,-6.950795724,10.05243685
41:35.8,1.42E+12,3.7573366,-5.687722,-6.724017,9.574975953,3.418327562,-6.107587213,-6.905320284,10.05890213
41:35.8,1.42E+12,3.8685553,-6.1429257,-7.3341484,10.31944713,3.4736106,-6.240004849,-6.890716652,10.10221861
41:35.8,1.42E+12,3.9987845,-6.419101,-7.9785585,10.99329481,3.538806026,-6.377233473,-6.900632032,10.17144065
41:35.9,1.42E+12,3.8199065,-6.4491887,-7.970475,10.9413067,3.597561844,-6.502591786,-6.924989372,10.25401891
41:35.9,1.42E+12,3.8091288,-5.939499,-7.5471554,10.33182778,3.643866552,-6.597536354,-6.94108689,10.32049619
41:35.9,1.42E+12,3.9433997,-4.632866,-7.226223,9.446276908,3.675732286,-6.647265942,-6.94894555,10.35865852
41:36.0,1.42E+12,3.8929546,-3.8125718,-7.7546244,9.477605121,3.699682482,-6.664129876,-6.962645064,10.38565289
41:36.0,1.42E+12,3.7685633,-3.781736,-7.923024,9.553947133,3.709247592,-6.671793944,-6.976844536,10.40421604
41:36.0,1.42E+12,3.284021,-3.9359152,-8.100704,9.586325035,3.703005576,-6.67221008,-6.990567996,10.41347563
41:36.0,1.42E+12,3.061284,-3.8455033,-8.364456,9.701725596,3.688689344,-6.65855248,-7.014560102,10.42192157
41:36.0,1.42E+12,3.542683,-3.8392162,-7.9766126,9.535016122,3.684354358,-6.634186144,-7.038252834,10.427319
41:36.0,1.42E+12,3.479215,-2.937192,-8.1054945,9.296831447,3.674935944,-6.573927452,-7.04799458,10.40440381
41:36.0,1.42E+12,3.1874716,-2.1335135,-8.398585,9.232988956,3.648345236,-6.471327814,-7.04004012,10.34367675
41:36.1,1.42E+12,2.8568091,-1.4555731,-8.288713,8.887227604,3.616111258,-6.35051105,-7.02617594,10.27095081
41:36.1,1.42E+12,2.4989035,-1.3976436,-7.7481875,8.26028667,3.580302718,-6.248291612,-7.02412521,10.21489263
41:36.1,1.42E+12,2.1188438,-1.3247452,-7.7179503,8.112410599,3.541395624,-6.161053024,-7.04159987,10.18148881
41:36.1,1.42E+12,1.8705102,-0.6506969,-7.687414,7.938422316,3.491154098,-6.051645536,-7.06494533,10.1410721
41:36.1,1.42E+12,0.8222401,0.70967424,-6.871311,6.956624984,3.414543414,-5.903151331,-7.0532726,10.05901124
41:36.2,1.42E+12,0.014669495,1.2265494,-6.552923,6.666741218,3.322421984,-5.738239263,-7.02959484,9.963893344
41:36.2,1.42E+12,-0.40296203,1.3497432,-6.8292484,6.97300644,3.220849203,-5.565336819,-7.017856254,9.87524455
41:36.2,1.42E+12,-0.4567003,1.6497194,-7.470515,7.664120538,3.119327317,-5.377417599,-7.024828754,9.798688429
41:36.2,1.42E+12,-0.39772293,1.3784834,-7.644154,7.777627555,3.014652993,-5.193420223,-7.040480208,9.724770112
41:36.2,1.42E+12,0.49202684,0.76251435,-7.9986167,8.04993091,2.931997878,-5.037175136,-7.064035222,9.668870909
41:36.3,1.42E+12,0.87014055,0.4816983,-8.240664,8.300465107,2.867535929,-4.89327937,-7.09253597,9.626771643
41:36.3,1.42E+12,1.2460089,0.1061293,-8.721763,8.810956329,2.819318199,-4.757963758,-7.135514598,9.602066949
41:36.3,1.42E+12,1.0870395,0.14130615,-8.853639,8.921241273,2.776698829,-4.622405655,-7.186821912,9.586643996
41:36.3,1.42E+12,1.3217514,-0.13187577,-8.738828,8.839204308,2.742384187,-4.492724331,-7.242377392,9.575246086
41:36.3,1.42E+12,1.4673985,-0.0490979,-8.632249,8.756220175,2.711730931,-4.354067669,-7.293642786,9.555865746
41:36.4,1.42E+12,1.64463,-0.055684205,-8.458012,8.616604642,2.685463555,-4.213503973,-7.337639306,9.530111142
41:36.4,1.42E+12,1.752855,-0.49352372,-8.449629,8.643627511,2.658034597,-4.076116667,-7.37748944,9.497393973
41:36.4,1.42E+12,2.0324736,-0.79035646,-8.018375,8.30962995,2.632958749,-3.938498846,-7.4068853,9.451424833
41:36.5,1.42E+12,2.1612058,-1.1591895,-7.9194317,8.290472198,2.615439181,-3.810476076,-7.435185454,9.408724729
41:36.5,1.42E+12,2.4239094,-1.5955321,-7.669152,8.199814136,2.601431311,-3.693584152,-7.463072468,9.3682804
41:36.5,1.42E+12,2.6716442,-2.070195,-7.663913,8.37609411,2.601509149,-3.590981512,-7.498303208,9.34210184
41:36.5,1.42E+12,3.0308971,-2.5641677,-7.5549393,8.534541643,2.604682547,-3.500638386,-7.531581994,9.319817317
41:36.5,1.42E+12,3.1075377,-2.9970675,-7.856562,8.964640016,2.603449111,-3.415932528,-7.569486168,9.301232722
41:36.5,1.42E+12,3.0192215,-3.2403116,-7.913594,9.068643103,2.602796467,-3.338199172,-7.6042888,9.284394298
41:36.5,1.42E+12,3.123854,-3.5531611,-7.4208183,8.800679625,2.599632047,-3.272000834,-7.632544046,9.26653103
41:36.6,1.42E+12,3.160378,-4.0818615,-7.121291,8.79558798,2.600679867,-3.21490955,-7.654488414,9.24847059
41:36.6,1.42E+12,3.313809,-4.6234355,-7.415729,9.346150144,2.602793473,-3.16231192,-7.674394014,9.231310411
41:36.6,1.42E+12,3.4889448,-5.2711387,-7.7014847,9.963458516,2.605694441,-3.118288474,-7.695383368,9.219613798
41:36.6,1.42E+12,3.9103184,-6.0180855,-7.764055,10.57300776,2.622749973,-3.090365538,-7.711175528,9.218506492
41:36.6,1.42E+12,3.9948926,-6.452931,-7.683971,10.80013406,2.640730581,-3.076594178,-7.728243038,9.227393355
41:36.7,1.42E+12,4.063001,-6.5536714,-7.669601,10.87572367,2.657184369,-3.060017646,-7.747621738,9.235241598
41:36.7,1.42E+12,4.1004233,-6.389912,-7.4076457,10.60743425,2.662204935,-3.035241166,-7.753749992,9.225180503
41:36.7,1.42E+12,4.1607475,-6.672674,-7.3115454,10.73755532,2.660758935,-3.014820626,-7.74919945,9.208458639
41:36.7,1.42E+12,4.4423122,-6.8111362,-6.9754944,10.71369386,2.666141739,-2.99510363,-7.729659084,9.184866324
41:36.7,1.42E+12,4.370761,-6.7683253,-7.0561767,10.70996773,2.673162139,-2.971940796,-7.720333478,9.166192704
41:36.8,1.42E+12,4.245172,-6.781348,-6.6686325,10.41531687,2.684215153,-2.960292022,-7.718231848,9.161198062
41:36.8,1.42E+12,4.102818,-6.7144375,-6.7312026,10.35499275,2.702881333,-2.968378212,-7.71663018,9.172076491
41:36.8,1.42E+12,3.8990917,-6.920858,-6.8627787,10.49756748,2.705716435,-2.993040932,-7.719405414,9.190528322
41:36.8,1.42E+12,3.793711,-7.149732,-7.066206,10.74440217,2.704219549,-3.013177058,-7.714046566,9.199027423
41:36.8,1.42E+12,3.8098774,-7.204967,-7.093449,10.80480143,2.700441407,-3.028894378,-7.696344376,9.195257555
41:36.9,1.42E+12,3.699856,-7.06905,-6.8678684,10.52748872,2.698040397,-3.041291604,-7.674292244,9.186981195
41:36.9,1.42E+12,3.291206,-7.16994,-6.6603994,10.32477587,2.687681941,-3.065900424,-7.656557124,9.186840157
41:36.9,1.42E+12,3.3832645,-7.2078114,-6.400091,10.21568347,2.676479237,-3.117399332,-7.640034484,9.202228288
41:36.9,1.42E+12,3.5374439,-7.355554,-6.192323,10.24512314,2.669369023,-3.188258976,-7.608788456,9.217578649
41:36.9,1.42E+12,3.492687,-7.6011934,-6.1478653,10.38138966,2.663851497,-3.264648124,-7.573285282,9.234127499
41:37.0,1.42E+12,3.3468902,-7.777676,-6.2872257,10.54623748,2.665108881,-3.34148334,-7.537015716,9.253325748
41:37.0,1.42E+12,3.529211,-7.972421,-6.547235,10.90326158,2.674467421,-3.424021694,-7.500671296,9.277356468
41:37.0,1.42E+12,3.7769458,-8.017179,-6.8052983,11.17374439,2.679152677,-3.50758095,-7.47724501,9.310131033
41:37.0,1.42E+12,3.7242553,-7.8944335,-6.768026,11.04528559,2.684053483,-3.60672578,-7.45049564,9.345100116
41:37.0,1.42E+12,3.723507,-7.645052,-6.8705626,10.93233529,2.694774191,-3.71695655,-7.419935192,9.379087043
41:37.1,1.42E+12,3.9651046,-7.09285,-6.5334635,10.42673108,2.716940101,-3.829702088,-7.384830202,9.409877112
41:37.1,1.42E+12,3.9022353,-6.590645,-6.1140356,9.800279239,2.745006737,-3.933562116,-7.352147164,9.440676964
41:37.2,1.42E+12,3.6214192,-6.3728476,-5.9029746,9.411321516,2.775058245,-4.034524164,-7.31584765,9.466655182
41:37.2,1.42E+12,2.808909,-6.3463526,-6.06389,9.216122993,2.793826221,-4.148437278,-7.28337717,9.492209196
41:37.2,1.42E+12,3.7133281,-6.5854053,-5.9650955,9.630095164,2.851647981,-4.294338869,-7.26525286,9.545678599
41:37.2,1.42E+12,4.6376557,-7.5018,-7.014563,11.26893729,2.944107705,-4.468905857,-7.27448566,9.637722521
41:37.2,1.42E+12,4.956493,-7.5230556,-7.7803707,11.90366988,3.051296805,-4.646361833,-7.293508106,9.736335789
41:37.2,1.42E+12,4.3956094,-7.649543,-8.164621,12.02072902,3.148342999,-4.832347081,-7.307390226,9.823467959
41:37.2,1.42E+12,3.9796243,-6.8635273,-7.130422,10.6671615,3.235889944,-4.997187295,-7.297115586,9.881258638
41:37.2,1.42E+12,3.6646793,-6.0478735,-6.071524,9.320410502,3.299342993,-5.133395052,-7.258573732,9.90666823
41:37.3,1.42E+12,3.929778,-5.302124,-6.389014,9.185596003,3.360535742,-5.249071498,-7.221540732,9.924370848
41:37.3,1.42E+12,4.1661363,-4.870422,-7.076684,9.547625808,3.41893829,-5.348602524,-7.188639152,9.939104237
41:37.3,1.42E+12,4.3605824,-4.9243097,-7.6007442,10.0516077,3.484409148,-5.449914841,-7.163581256,9.961711566
41:37.3,1.42E+12,4.9270043,-5.4390893,-7.8333607,10.73408606,3.556514206,-5.556059112,-7.14547191,9.999609201
41:37.3,1.42E+12,5.511389,-5.486541,-8.575966,11.57690519,3.637394016,-5.664807974,-7.14434625,10.0560229
41:37.4,1.42E+12,5.226681,-5.4956717,-8.861423,11.66385096,3.709035036,-5.773607724,-7.15241447,10.11696783
41:37.4,1.42E+12,4.937183,-5.27548,-8.859925,11.43261721,3.772721596,-5.869246849,-7.16062039,10.17274762
41:37.4,1.42E+12,4.8520103,-4.580924,-8.235574,10.5996013,3.82911233,-5.9450582,-7.16496437,10.21854705
41:37.4,1.42E+12,4.167484,-3.2156131,-7.1648507,8.890622928,3.869237894,-5.986186672,-7.14987275,10.23055006
41:37.5,1.42E+12,2.9481194,-2.4948618,-6.8557434,7.868733123,3.879722094,-6.004173266,-7.133604578,10.22392844
41:37.5,1.42E+12,2.1381538,-1.8598824,-7.034771,7.584119411,3.869052286,-5.999967014,-7.121021738,10.20808895
41:37.5,1.42E+12,2.5188122,-0.38455033,-7.3844438,7.811677418,3.858810588,-5.956374667,-7.117611828,10.19363166
41:37.5,1.42E+12,1.7645307,-0.19010468,-7.562723,7.768171442,3.831950448,-5.90023541,-7.111735048,10.16970229
41:37.5,1.42E+12,1.4184504,-0.8937914,-7.169341,7.362765444,3.799935026,-5.853305006,-7.096849988,10.13558474
41:37.5,1.42E+12,1.0831475,-0.9083111,-7.4639287,7.596609059,3.759120896,-5.800408006,-7.097712196,10.11150333
41:37.6,1.42E+12,0.24803421,-0.64411056,-7.185508,7.218581897,3.70087402,-5.731652987,-7.098996536,10.07996321
41:37.6,1.42E+12,-0.028590545,-0.3622467,-7.253616,7.26271197,3.634026029,-5.646429211,-7.095754276,10.03829444
41:37.6,1.42E+12,0.30566436,-0.22767654,-7.2181396,7.228195251,3.570360421,-5.545559968,-7.086087374,9.983589178
41:37.6,1.42E+12,0.4593947,-0.02215393,-8.137229,8.150216567,3.501341947,-5.425641337,-7.093550854,9.935133354
41:37.6,1.42E+12,0.29773086,0.38634658,-8.208032,8.222511578,3.427398712,-5.288855785,-7.104032074,9.883580904
41:37.7,1.42E+12,0.407303,0.2520758,-8.131241,8.145337203,3.354284752,-5.152740841,-7.113264874,9.828973175
41:37.7,1.42E+12,0.9491762,0.53304154,-8.203092,8.275009795,3.29125981,-5.01428177,-7.1291738,9.782324686
41:37.8,1.42E+12,1.0922786,0.45714936,-8.394843,8.477938846,3.229890432,-4.871685303,-7.150839752,9.737132357
41:37.8,1.42E+12,0.6706055,0.102387086,-8.092472,8.120855738,3.154456298,-4.733414837,-7.173179304,9.685275594
41:37.8,1.42E+12,0.5683681,-0.12783417,-7.945627,7.96695502,3.07840844,-4.600605015,-7.19096831,9.63041534
41:37.8,1.42E+12,1.0964699,0.23860382,-7.9411364,8.020026518,3.015434398,-4.460205978,-7.216418388,9.582509533
41:37.8,1.42E+12,1.4428496,0.2255809,-8.272247,8.400165007,2.96223503,-4.32140561,-7.247239276,9.543412978
41:37.8,1.42E+12,2.0088227,-0.07723938,-7.7790236,8.034584167,2.92442965,-4.184533238,-7.265564174,9.494153312
41:37.8,1.42E+12,2.318379,-0.52855086,-8.668624,8.988842487,2.89492301,-4.052109615,-7.297612534,9.459042118
41:37.8,1.42E+12,3.3581169,-1.5757731,-8.576565,9.344382118,2.8858878,-3.939525737,-7.327274854,9.429833732
41:37.9,1.42E+12,3.2163615,-2.2001247,-6.635851,7.695456353,2.87621791,-3.842147231,-7.322634506,9.373193085
41:37.9,1.42E+12,4.077521,-2.4523504,-8.854986,10.0524115,2.89194421,-3.747795439,-7.366526238,9.367745797
41:37.9,1.42E+12,4.578379,-3.1635215,-8.356972,10.04033882,2.9158465,-3.666909641,-7.405663858,9.364238904
41:37.9,1.42E+12,3.4268239,-3.082989,-5.7597227,7.377150452,2.9136341,-3.581458341,-7.397011852,9.30687945
41:37.9,1.42E+12,1.8202149,-2.8719277,-6.1498113,7.027185071,2.880184658,-3.486873027,-7.397050772,9.239795359
41:38.0,1.42E+12,2.9538076,-3.9357655,-7.7814183,9.206828996,2.872323006,-3.410034817,-7.426934624,9.213007189
41:38.0,1.42E+12,4.503535,-5.9622517,-7.478598,10.57164608,2.891809486,-3.369831431,-7.445561884,9.206374879
41:38.0,1.42E+12,5.2409015,-7.2259235,-6.845864,11.24930544,2.9210886,-3.354006321,-7.446373198,9.2078861
41:38.0,1.42E+12,5.8281302,-7.6122704,-7.0886593,11.92320649,2.963166098,-3.348363059,-7.452785864,9.225444518
41:38.0,1.42E+12,5.557643,-6.401139,-6.6330066,10.76377038,2.999848818,-3.323484799,-7.448034744,9.22207322
41:38.1,1.42E+12,4.7729745,-5.3741245,-5.8279805,9.253532106,3.016006216,-3.289110289,-7.433925084,9.19860924
41:38.1,1.42E+12,4.0207887,-5.2233877,-5.4992642,8.584429368,3.018377284,-3.261765143,-7.421629656,9.174292243
41:38.1,1.42E+12,3.9740858,-5.7709494,-5.946534,9.190129571,3.025430616,-3.249727179,-7.422500844,9.169868404
41:38.2,1.42E+12,4.0483313,-6.369405,-6.450237,9.927933507,3.050219062,-3.250188227,-7.430227784,9.184104614
41:38.2,1.42E+12,4.929848,-7.561526,-7.5973015,11.79826542,3.07454946,-3.269710641,-7.462871904,9.227468019
41:38.2,1.42E+12,5.1756372,-8.288564,-7.303313,12.19942189,3.08530909,-3.285445921,-7.468646904,9.246077711
41:38.2,1.42E+12,5.327721,-8.483159,-7.5338335,12.53424289,3.09273365,-3.304647989,-7.46371616,9.258689171
41:38.2,1.42E+12,4.9831376,-8.28078,-7.3301067,12.12985746,3.104484214,-3.317272729,-7.447025874,9.26087174
41:38.2,1.42E+12,4.3198667,-7.8885956,-6.355035,11.01261362,3.111289062,-3.337774095,-7.431518134,9.267780783
41:38.2,1.42E+12,3.5131943,-7.016958,-5.4399877,9.548492024,3.108259362,-3.357155785,-7.418887408,9.272342413
41:38.3,1.42E+12,3.0485604,-6.135142,-5.0421147,8.506268778,3.09063501,-3.373816145,-7.391949422,9.258755869
41:38.3,1.42E+12,3.1576836,-6.067782,-5.274731,8.637808243,3.070465956,-3.397763345,-7.355910362,9.240559517
41:38.3,1.42E+12,4.025579,-6.6867447,-5.8429494,9.749764031,3.063765888,-3.433012045,-7.320754466,9.234522644
41:38.3,1.42E+12,4.210594,-7.4630303,-6.688092,10.86998149,3.049437682,-3.473490865,-7.297849092,9.237240553
41:38.3,1.42E+12,4.001778,-7.5568852,-6.9567833,11.02350103,3.019245462,-3.514897749,-7.265465438,9.226172469
41:38.4,1.42E+12,4.1915836,-7.662865,-7.0889583,11.24909787,2.998543514,-3.558241615,-7.230016144,9.217877408
41:38.4,1.42E+12,4.229754,-7.8570113,-7.3283105,11.54675627,2.984394934,-3.609872241,-7.199383854,9.220160189
41:38.4,1.42E+12,4.0829096,-8.216863,-7.4356375,11.80998279,2.96901292,-3.682591021,-7.183385124,9.244367819
41:38.4,1.42E+12,4.195176,-8.387209,-7.8219843,12.21180637,2.96956676,-3.786022939,-7.196527796,9.310791487
41:38.4,1.42E+12,3.9439983,-8.302185,-7.8101587,12.06150808,2.989484338,-3.902169403,-7.215616102,9.394646987
41:38.5,1.42E+12,3.7064424,-7.8929367,-7.218589,11.32007916,3.02085011,-4.022830489,-7.219292462,9.469366182
41:38.5,1.42E+12,3.3335679,-6.986122,-6.3539867,10.0145755,3.037145224,-4.154861923,-7.19868332,9.513424143
41:38.5,1.42E+12,3.854185,-6.077961,-6.2613297,9.539423544,3.07893831,-4.272619049,-7.172655454,9.548849185
41:38.5,1.42E+12,4.257297,-6.45353,-6.7403336,10.25693542,3.135715242,-4.383813821,-7.164075306,9.606732585
41:38.5,1.42E+12,5.2798204,-6.9355273,-7.0503387,11.21094635,3.2196487,-4.504358145,-7.155803506,9.679019331
41:38.6,1.42E+12,5.0494494,-6.9885173,-7.5645194,11.46988522,3.315677004,-4.63124628,-7.163383734,9.764045397
41:38.6,1.42E+12,4.659361,-6.3521905,-6.6897388,10.3350169,3.409436034,-4.751045156,-7.15210619,9.825491496
41:38.6,1.42E+12,4.7571077,-5.530699,-5.6540422,9.229674875,3.498464901,-4.857105605,-7.120824242,9.865521088
41:38.6,1.42E+12,4.894971,-5.38595,-7.167395,10.21473199,3.587176427,-4.964381526,-7.101427562,9.906811397
41:38.6,1.42E+12,5.1224976,-5.1248927,-8.422086,11.11017729,3.683671762,-5.074606312,-7.105708642,9.964564711
41:38.7,1.42E+12,4.612059,-4.951853,-8.008945,10.48499577,3.767766882,-5.178684888,-7.103262722,10.01135788
41:38.7,1.42E+12,4.9710126,-4.67897,-7.6710978,10.26885914,3.84820361,-5.282925119,-7.092622838,10.05123487
41:38.7,1.42E+12,5.049749,-4.494853,-7.369176,10.00042116,3.927353018,-5.381965166,-7.072109498,10.08168452
41:38.8,1.42E+12,5.032086,-4.056864,-7.7959385,10.1270278,4.014582628,-5.465150188,-7.066178828,10.12180796
41:38.8,1.42E+12,4.8913784,-4.0299196,-7.629634,9.918525576,4.101042834,-5.543191896,-7.059858968,10.16083937
41:38.8,1.42E+12,3.9396574,-3.4465828,-7.960895,9.527627335,4.157906584,-5.616895629,-7.06025414,10.19099138
41:38.8,1.42E+12,3.0868807,-2.842888,-7.9553566,8.994361749,4.190787206,-5.678265007,-7.053916332,10.20287532
41:38.8,1.42E+12,2.6054819,-1.992806,-7.5971518,8.275054511,4.20272039,-5.716576339,-7.050278896,10.20768473
41:38.8,1.42E+12,1.6952248,-0.61776537,-6.391858,6.641631567,4.190257306,-5.718360629,-7.004743576,10.16074051
41:38.8,1.42E+12,1.2572355,0.5809419,-6.3527894,6.502004903,4.148239678,-5.675226329,-6.960268064,10.10389296
41:38.9,1.42E+12,0.5610333,0.42796004,-6.8123336,6.848780712,4.095133114,-5.622664635,-6.963797716,10.08695945
41:38.9,1.42E+12,-0.20237915,0.45879593,-6.2733045,6.293313942,4.009535111,-5.564441708,-6.912164086,10.0117775
41:38.9,1.42E+12,-0.32901582,0.51567763,-6.332432,6.361907722,3.911387215,-5.490857725,-6.871673286,9.938208877
41:38.9,1.42E+12,-0.2348616,0.6240523,-6.6259713,6.659436681,3.838153505,-5.416716899,-6.888998258,9.923854602
41:38.9,1.42E+12,0.2321672,0.6126759,-7.292236,7.321610427,3.806392551,-5.347024827,-6.911846752,9.929743109
41:39.0,1.42E+12,0.17872833,0.3104544,-7.646998,7.655383998,3.750890965,-5.262100429,-6.909158346,9.898714209
41:39.0,1.42E+12,0.37302428,0.16615447,-7.942633,7.953123499,3.668280751,-5.139532306,-6.918439046,9.846343757
41:39.0,1.42E+12,1.0422826,-0.15717316,-8.658145,8.722071501,3.584308373,-4.998157299,-6.954684666,9.795799078
41:39.0,1.42E+12,1.5382013,-0.3516188,-9.356294,9.488410638,3.498509795,-4.852944267,-7.00003736,9.747103161
41:39.1,1.42E+12,1.4750327,-0.53678375,-9.628877,9.75597922,3.416857589,-4.735657162,-7.059954768,9.726947338
41:39.1,1.42E+12,1.3087285,-0.563578,-9.230106,9.339445766,3.347572669,-4.639446232,-7.127997278,9.728665611
41:39.1,1.42E+12,1.0755135,-0.15642472,-9.038505,9.103613053,3.288667165,-4.538106973,-7.198782094,9.739049285
41:39.1,1.42E+12,1.0339,-0.29877868,-8.463999,8.532144923,3.229863449,-4.428663558,-7.249131394,9.725889592
41:39.1,1.42E+12,1.1283536,-0.3608995,-7.9306583,8.018651468,3.171463895,-4.308493448,-7.27873982,9.687703951
41:39.1,1.42E+12,1.5420932,-0.45280838,-7.534282,7.703797253,3.103708799,-4.166319096,-7.27747943,9.605814588
41:39.2,1.42E+12,1.8290465,-0.5737569,-7.15557,7.40788702,3.036776985,-4.012022954,-7.27452457,9.509983891
41:39.2,1.42E+12,2.0142114,-0.8782237,-6.7979636,7.144272779,2.970506793,-3.859924248,-7.259807172,9.402184488
41:39.2,1.42E+12,2.247127,-1.1825409,-6.627019,7.096855893,2.915786581,-3.717959466,-7.245745418,9.301524457
41:39.2,1.42E+12,2.4319925,-1.7962646,-6.4417043,7.115947465,2.878029097,-3.596112846,-7.247478804,9.223591134
41:39.2,1.42E+12,2.7529252,-2.8135493,-6.4970894,7.596501003,2.862823715,-3.512044672,-7.268620838,9.184551314
41:39.3,1.42E+12,3.213817,-3.9890547,-6.5610065,8.323940377,2.866128847,-3.469122926,-7.298998674,9.180904745
41:39.3,1.42E+12,4.022435,-4.839137,-6.7412314,9.221791096,2.883423875,-3.444550026,-7.328328682,9.192584403
