time,time_milisec,ax,ay,az,resultant,MA_x,MA_y,MA_z,MA_R
00:39.3,1.42E+12,4.653074,3.624862,-6.7124915,8.935785601,0,0,0,0
00:39.3,1.42E+12,4.6324167,3.8963974,-6.3435087,8.768198208,0,0,0,0
00:39.3,1.42E+12,5.429659,3.9989343,-6.4717917,9.346483842,0,0,0,0
00:39.3,1.42E+12,6.0743685,3.7220101,-6.7846413,9.837818327,0,0,0,0
00:39.3,1.42E+12,6.145171,3.916306,-7.125333,10.19170985,0,0,0,0
00:39.4,1.42E+12,5.685028,4.254752,-6.9138227,9.910772032,0,0,0,0
00:39.4,1.42E+12,5.2946396,4.233646,-6.8238597,9.618837152,0,0,0,0
00:39.5,1.42E+12,5.1768346,3.852838,-6.9657645,9.495570136,0,0,0,0
00:39.5,1.42E+12,5.2105145,3.600463,-7.4530015,9.780594385,0,0,0,0
00:39.5,1.42E+12,5.307064,3.5825002,-7.3319035,9.734271669,0,0,0,0
00:39.5,1.42E+12,5.4576507,3.526816,-7.061865,9.596578533,0,0,0,0
00:39.5,1.42E+12,5.298382,3.5871406,-7.0380645,9.511823243,0,0,0,0
00:39.5,1.42E+12,5.085225,3.2578254,-7.2132,9.407613612,0,0,0,0
00:39.5,1.42E+12,5.260511,3.2958462,-7.2067633,9.511730411,0,0,0,0
00:39.5,1.42E+12,5.47741,3.324437,-7.2816076,9.699263421,0,0,0,0
00:39.6,1.42E+12,5.561385,3.65944,-7.2304144,9.828499205,0,0,0,0
00:39.6,1.42E+12,5.691165,3.587889,-7.1404514,9.810624482,0,0,0,0
00:39.6,1.42E+12,5.720654,3.969745,-7.014563,9.883767077,0,0,0,0
00:39.6,1.42E+12,5.4143906,4.2007146,-6.927594,9.744392611,0,0,0,0
00:39.6,1.42E+12,5.2771263,4.263883,-6.8536477,9.643715416,0,0,0,0
00:39.7,1.42E+12,5.2653008,4.5205994,-6.690038,9.639285238,0,0,0,0
00:39.7,1.42E+12,5.3000283,4.738247,-6.644982,9.731241976,0,0,0,0
00:39.7,1.42E+12,5.4486694,4.962331,-6.5482826,9.858637441,0,0,0,0
00:39.7,1.42E+12,5.587431,5.1229467,-6.4571223,9.957830912,0,0,0,0
00:39.7,1.42E+12,5.798043,5.41963,-6.306386,10.1370704,0,0,0,0
00:39.8,1.42E+12,5.7055354,5.629493,-6.3249474,10.21025393,0,0,0,0
00:39.8,1.42E+12,5.7694526,5.718708,-6.224356,10.23390503,0,0,0,0
00:39.8,1.42E+12,5.7082295,5.5558467,-6.364914,10.1962467,0,0,0,0
00:39.8,1.42E+12,5.4245696,5.5916224,-6.2300444,9.975251858,0,0,0,0
00:39.8,1.42E+12,5.426216,5.5769525,-6.4575715,10.11169862,0,0,0,0
00:39.9,1.42E+12,5.4726195,5.4609437,-6.558911,10.13857898,0,0,0,0
00:39.9,1.42E+12,5.568121,5.244943,-6.65067,10.13631146,0,0,0,0
00:39.9,1.42E+12,5.808222,5.189558,-6.523285,10.15973436,0,0,0,0
00:39.9,1.42E+12,5.7651114,5.051545,-6.393205,9.981366966,0,0,0,0
00:39.9,1.42E+12,5.9833574,4.9772997,-6.271658,9.995387544,0,0,0,0
00:40.0,1.42E+12,5.9198895,4.900809,-6.2653713,9.915538214,0,0,0,0
00:40.0,1.42E+12,6.1534038,4.8764095,-6.3348265,10.0882989,0,0,0,0
00:40.0,1.42E+12,6.199508,4.6978307,-6.443351,10.10050914,0,0,0,0
00:40.0,1.42E+12,6.1528053,4.6018806,-6.516249,10.07451335,0,0,0,0
00:40.1,1.42E+12,6.072871,4.504433,-6.8153276,10.17931084,0,0,0,0
00:40.1,1.42E+12,5.88127,4.49156,-7.0033364,10.18872753,0,0,0,0
00:40.1,1.42E+12,5.7260427,4.3825865,-7.3592963,10.30310009,0,0,0,0
00:40.1,1.42E+12,5.5028567,4.399801,-7.469617,10.26814778,0,0,0,0
00:40.1,1.42E+12,5.31365,4.228856,-7.362739,10.01638782,0,0,0,0
00:40.1,1.42E+12,5.127288,4.1424856,-7.1106634,9.69591683,0,0,0,0
00:40.2,1.42E+12,5.190756,4.113745,-6.9681597,9.613641109,0,0,0,0
00:40.2,1.42E+12,5.263205,3.9505847,-6.6750693,9.373633047,0,0,0,0
00:40.2,1.42E+12,5.5251603,3.926934,-6.5074177,9.396525534,0,0,0,0
00:40.2,1.42E+12,5.7281384,3.819607,-6.5307693,9.489568737,0,0,0,0
00:40.2,1.42E+12,5.896987,3.8455033,-6.4171553,9.525871795,5.550748162,4.380002756,-6.76640022,9.819010827
00:40.3,1.42E+12,6.1281066,3.5956728,-6.4608645,9.603401662,5.580248814,4.379418972,-6.76136768,9.832363148
00:40.3,1.42E+12,6.3122234,3.4371524,-6.4373636,9.648721728,5.613844948,4.370234072,-6.763244778,9.849973619
00:40.3,1.42E+12,6.1748095,3.4804125,-6.3087807,9.489059882,5.628747958,4.359863636,-6.759984558,9.852825139
00:40.3,1.42E+12,5.951923,3.4052687,-6.129903,9.197660197,5.626299048,4.353528808,-6.746889792,9.840021977
00:40.3,1.42E+12,5.987549,3.445086,-6.133645,9.238017188,5.623146608,4.344104408,-6.727056032,9.820948123
00:40.4,1.42E+12,5.7910075,3.441643,-6.0803556,9.074767139,5.625266198,4.327842228,-6.71038669,9.804228026
00:40.4,1.42E+12,5.570666,3.5718722,-6.168223,9.046411757,5.630786726,4.314606752,-6.697273956,9.792779518
00:40.4,1.42E+12,5.815856,3.5586996,-6.2614794,9.257140386,5.643567154,4.308723984,-6.683188254,9.788010923
00:40.4,1.42E+12,6.0420356,3.4977763,-6.598578,9.606345031,5.660197576,4.30667025,-6.666099784,9.784525936
00:40.4,1.42E+12,6.2032504,3.5178347,-7.116202,10.07451276,5.678121304,4.30537694,-6.661785754,9.791330757
00:40.5,1.42E+12,6.343359,3.6516564,-7.4516544,10.4450922,5.69583547,4.307873748,-6.669581542,9.808301031
00:40.5,1.42E+12,6.4334717,3.666775,-7.651489,10.64800831,5.718537264,4.309466436,-6.681850032,9.831024732
00:40.5,1.42E+12,6.1974125,3.703748,-7.7140584,10.56562199,5.740781014,4.318384888,-6.6918672,9.8541849
00:40.5,1.42E+12,5.876031,3.696563,-7.493567,10.21498236,5.753091414,4.326399224,-6.697603274,9.868249939
00:40.5,1.42E+12,5.3846025,3.5169365,-7.1769753,9.636999579,5.751235264,4.330249214,-6.695510628,9.867004662
00:40.6,1.42E+12,5.1165104,3.3715887,-7.0841684,9.366521817,5.742337772,4.324492188,-6.692585708,9.857765114
00:40.6,1.42E+12,4.8922763,3.2846196,-6.8123336,9.00727386,5.726359998,4.3184268,-6.686023352,9.841698102
00:40.6,1.42E+12,5.1215997,3.395539,-6.899153,9.238981584,5.714378912,4.30694268,-6.683715152,9.828802392
00:40.6,1.42E+12,5.4259167,3.3913476,-6.8826876,9.397510265,5.714609434,4.29075534,-6.682817024,9.821864745
00:40.6,1.42E+12,5.633535,3.5892363,-6.961424,9.647836956,5.721737608,4.277262406,-6.68497255,9.821947176
00:40.7,1.42E+12,6.01599,3.8049376,-6.9936066,9.978988881,5.736751392,4.26294917,-6.691043922,9.828741249
00:40.7,1.42E+12,6.185587,3.771108,-6.531368,9.754050955,5.754462566,4.24360639,-6.688771642,9.829197428
00:40.7,1.42E+12,5.848937,3.4200878,-6.170019,9.16385285,5.762467918,4.212761526,-6.68120637,9.815301736
00:40.7,1.42E+12,5.8272324,3.3687446,-6.0834994,9.072708668,5.767263946,4.177677484,-6.673733912,9.797599291
00:40.7,1.42E+12,5.8742347,3.3067734,-6.3903613,9.288600604,5.76878778,4.135420352,-6.675413418,9.780629895
00:40.8,1.42E+12,5.78023,3.0226643,-6.4875093,9.199746477,5.770281672,4.083283778,-6.678664656,9.760419746
00:40.8,1.42E+12,6.1010127,3.1120286,-6.698271,9.579870164,5.776912874,4.03115019,-6.688142956,9.747339049
00:40.8,1.42E+12,6.3198576,3.4944832,-7.246281,10.2303764,5.789145436,3.98992292,-6.705770296,9.748021643
00:40.8,1.42E+12,5.936056,3.45751,-7.7294765,10.34098367,5.799375164,3.947240672,-6.735758938,9.755336279
00:40.8,1.42E+12,5.6634727,3.2937505,-7.907606,10.26907727,5.804120298,3.901576632,-6.764759628,9.758483852
00:40.9,1.42E+12,5.0512457,3.6067498,-7.578291,9.79562258,5.795692822,3.864492754,-6.785147228,9.751624724
00:40.9,1.42E+12,4.565506,3.70764,-7.450307,9.491971018,5.775640522,3.833746694,-6.801139968,9.738737915
00:40.9,1.42E+12,4.798422,3.62576,-7.089557,9.296924638,5.755444522,3.802470734,-6.812465408,9.721481721
00:40.9,1.42E+12,5.3000283,3.565286,-6.772367,9.309485433,5.74614286,3.772745554,-6.820048648,9.70804409
00:40.9,1.42E+12,5.533992,3.324736,-6.3637166,9.0650883,5.737155552,3.73969428,-6.82188982,9.689438106
00:41.0,1.42E+12,5.8674984,3.5432818,-6.125861,9.192853549,5.73610773,3.712543736,-6.819099614,9.674984412
00:41.0,1.42E+12,6.0659857,3.5341506,-6.494395,9.563658787,5.734359368,3.685698558,-6.822290984,9.66449161
00:41.0,1.42E+12,5.7327785,3.3617094,-6.9898643,9.644897218,5.725024778,3.658976132,-6.83322125,9.655379372
00:41.0,1.42E+12,5.6684127,3.2952476,-7.4648266,9.935451447,5.715336926,3.632843472,-6.852192802,9.652598133
00:41.1,1.42E+12,5.4519625,3.1698084,-7.70852,9.959561285,5.702918756,3.60615098,-6.87005665,9.648203142
00:41.1,1.42E+12,5.150639,3.0346394,-7.4226146,9.530651914,5.688306136,3.577012568,-6.878442214,9.63504163
00:41.1,1.42E+12,4.9579897,3.067571,-7.2666388,9.316420619,5.672945076,3.550712258,-6.876589064,9.615308041
00:41.1,1.42E+12,5.3184404,3.0433214,-7.0620146,9.349848322,5.66925675,3.523582666,-6.868437016,9.596942051
00:41.1,1.42E+12,5.5847363,2.7614574,-7.044501,9.404250148,5.674678476,3.494234694,-6.862072256,9.584699298
00:41.1,1.42E+12,6.071075,2.6488917,-6.7747617,9.474807385,5.693554216,3.464362816,-6.855354222,9.580277109
00:41.2,1.42E+12,6.6958756,2.5366251,-6.776408,9.858444215,5.723656608,3.432820418,-6.851519188,9.585173171
00:41.2,1.42E+12,6.671626,2.3770568,-6.377937,9.530953409,5.751825028,3.40134986,-6.845576542,9.588319578
00:41.2,1.42E+12,6.811735,2.3879843,-6.100863,9.451070419,5.777556522,3.370570866,-6.837445448,9.589410476
00:41.2,1.42E+12,6.5571146,2.3730154,-6.316265,9.408621446,5.794136046,3.341639034,-6.833155362,9.58779153
00:41.2,1.42E+12,6.310278,2.0773802,-6.365513,9.200808263,5.802401866,3.306276572,-6.832122516,9.58129026
00:41.3,1.42E+12,6.2207637,2.2135968,-6.610104,9.342985962,5.804255008,3.278635052,-6.835107306,9.576081946
00:41.3,1.42E+12,6.0742188,2.3565495,-7.0323763,9.586645712,5.799494916,3.257022994,-6.84700756,9.574840425
00:41.3,1.42E+12,6.0053616,2.287543,-7.4553967,9.842772012,5.796105958,3.233165604,-6.86993988,9.581914668
00:41.3,1.42E+12,5.998925,2.358196,-7.239246,9.693032146,5.797045998,3.21222415,-6.89212674,9.591822107
00:41.3,1.42E+12,6.020181,2.307751,-7.226822,9.684794792,5.797698638,3.18947745,-6.91399028,9.600757659
00:41.4,1.42E+12,6.047125,2.3123913,-7.323371,9.774796013,5.802820988,3.166892416,-6.938850588,9.614758237
00:41.4,1.42E+12,6.0137444,2.2848487,-7.0904555,9.573934118,5.811682556,3.141151946,-6.957295238,9.625308684
00:41.4,1.42E+12,5.9775195,2.1037252,-6.9528913,9.407395842,5.814915826,3.112052458,-6.971123476,9.628313793
00:41.4,1.42E+12,5.7357726,2.097588,-6.9557357,9.256415174,5.808790566,3.084048692,-6.97826663,9.621315196
00:41.4,1.42E+12,5.667814,2.3336473,-7.259753,9.50126512,5.798081838,3.060364944,-6.98113765,9.609850243
00:41.5,1.42E+12,5.5390816,2.1344116,-7.791298,9.79497128,5.78199629,3.030020048,-6.987930522,9.596847825
00:41.5,1.42E+12,5.360353,2.2263203,-8.1899185,10.03815976,5.760533916,3.001210954,-6.998699112,9.584650854
00:41.5,1.42E+12,5.1424065,2.2119503,-7.9933777,9.758645182,5.739433796,2.971375,-7.004285498,9.568511317
00:41.5,1.42E+12,5.0246015,2.3733146,-7.7534266,9.53912294,5.722405206,2.944910032,-7.00948269,9.554994129
00:41.5,1.42E+12,5.042564,2.515968,-7.6077795,9.467621433,5.715564436,2.924890662,-7.018098774,9.551606566
00:41.6,1.42E+12,5.1317782,2.3617887,-7.3539076,9.27324918,5.715869792,2.904694662,-7.023493558,9.549741113
00:41.6,1.42E+12,5.3606524,2.4123833,-7.1004844,9.218083643,5.725237314,2.887249936,-7.029256574,9.553957309
00:41.6,1.42E+12,5.518724,2.3317013,-7.206913,9.37191232,5.7331798,2.865973182,-7.035411774,9.556615924
00:41.6,1.42E+12,5.784122,2.2302122,-7.3087015,9.583685689,5.740343906,2.842750474,-7.043932052,9.560339432
00:41.6,1.42E+12,5.75613,1.9907103,-7.3024144,9.509007106,5.742795806,2.810779954,-7.05075186,9.557562835
00:41.7,1.42E+12,5.757028,2.0001407,-7.2000275,9.433150598,5.737616566,2.774684016,-7.054880278,9.54664607
00:41.7,1.42E+12,5.7516394,1.9573298,-7.3202276,9.513055653,5.728937614,2.738408452,-7.07065747,9.541826163
00:41.7,1.42E+12,5.635481,1.9883152,-7.3404355,9.465412657,5.724668494,2.709773,-7.0940658,9.54785736
00:41.7,1.42E+12,5.7968454,1.9127225,-7.632478,9.773261706,5.724060754,2.680652558,-7.125045372,9.56186842
00:41.7,1.42E+12,5.867199,1.9752923,-7.542066,9.757487552,5.72392004,2.654022936,-7.148079466,9.571246159
00:41.8,1.42E+12,5.7185583,1.977388,-7.377558,9.541505876,5.722686606,2.63311741,-7.16588044,9.578081347
00:41.8,1.42E+12,5.483846,2.1174967,-7.281458,9.358204413,5.710343272,2.613226772,-7.17754418,9.573648032
00:41.8,1.42E+12,5.3669395,1.9763402,-7.414531,9.3640392,5.69128491,2.582863912,-7.18090918,9.556321288
00:41.8,1.42E+12,5.36185,2.0733385,-7.202123,9.21513666,5.67980079,2.555180482,-7.17036211,9.533804348
00:41.8,1.42E+12,5.3922367,2.131268,-7.080426,9.151554636,5.67437607,2.531930832,-7.15381851,9.511453895
00:41.9,1.42E+12,5.3941827,2.2339544,-7.074139,9.172306245,5.68123481,2.504474924,-7.14373547,9.498987569
00:41.9,1.42E+12,5.689668,2.189946,-7.0754867,9.339737549,5.70371805,2.474121044,-7.136239064,9.495942899
00:41.9,1.42E+12,5.894293,2.255809,-7.3248677,9.66876678,5.72563547,2.446722024,-7.140945278,9.503379742
00:41.9,1.42E+12,5.7707996,2.0369642,-7.4516544,9.642536205,5.735050896,2.416155588,-7.154531026,9.510040758
00:41.9,1.42E+12,5.819149,2.3790028,-7.5360785,9.814001659,5.740754036,2.397240924,-7.177978264,9.525019025
00:42.0,1.42E+12,5.7068825,2.5809329,-7.685767,9.914672808,5.737541718,2.377993946,-7.209176384,9.53945541
00:42.0,1.42E+12,5.4175344,2.504442,-7.4342904,9.533655252,5.724572692,2.357399774,-7.227974292,9.538855339
00:42.1,1.42E+12,5.120851,2.590513,-7.1171,9.142591809,5.712334142,2.341975846,-7.230519006,9.528809231
00:42.1,1.42E+12,5.050797,2.863246,-6.925947,9.037558843,5.699981828,2.333335814,-7.219741414,9.510851379
00:42.1,1.42E+12,5.041666,3.1410682,-7.104077,9.260270812,5.691775898,2.33276101,-7.207652554,9.49686557
00:42.1,1.42E+12,5.216502,3.318599,-7.127728,9.43554444,5.693093158,2.338440202,-7.201754822,9.49496342
00:42.1,1.42E+12,5.380561,3.3805702,-7.2123017,9.61228315,5.701544584,2.344700186,-7.20066808,9.500880671
00:42.1,1.42E+12,5.3552637,3.6356397,-7.079079,9.592188739,5.70228105,2.356546552,-7.201009368,9.505727479
00:42.1,1.42E+12,5.3780165,3.629652,-7.0774326,9.601431525,5.698146654,2.373910444,-7.201668,9.509671107
00:42.1,1.42E+12,5.375172,3.5786083,-7.063811,9.570597538,5.684228594,2.392504776,-7.207448986,9.51158691
00:42.2,1.42E+12,5.517676,3.454666,-7.2652917,9.755200106,5.660664602,2.410865594,-7.21722666,9.509522027
00:42.2,1.42E+12,5.7507415,3.4881964,-7.115154,9.791014164,5.642246912,2.433088386,-7.231971,9.514723243
00:42.2,1.42E+12,5.7664585,3.201243,-6.857839,9.514723124,5.621341382,2.44935356,-7.24711052,9.515996297
00:42.2,1.42E+12,5.991291,3.3331187,-6.7105455,9.593574361,5.61002491,2.468555626,-7.25499613,9.519695355
00:42.2,1.42E+12,6.1715164,3.4564621,-6.5979795,9.673059413,5.607249678,2.496137264,-7.25964546,9.529140378
00:42.3,1.42E+12,6.404881,3.2459998,-6.7211733,9.835303038,5.610932024,2.516785324,-7.261866846,9.538986719
00:42.3,1.42E+12,6.207591,3.2422576,-6.811286,9.769341705,5.613599468,2.534499486,-7.25744504,9.542640639
00:42.3,1.42E+12,5.880222,3.2876134,-6.8175726,9.58460791,5.611096676,2.554500894,-7.244688558,9.537477357
00:42.3,1.42E+12,5.53504,3.4073644,-6.968609,9.529339502,5.601818976,2.575484262,-7.239275818,9.534203504
00:42.3,1.42E+12,5.1922526,3.6390824,-7.2658906,9.64342128,5.585260408,2.60211089,-7.24005719,9.533376034
00:42.7,1.42E+12,4.969516,3.6678228,-7.4913216,9.709217923,5.563708228,2.62921952,-7.243416202,9.532064472
00:42.7,1.42E+12,4.9573913,3.7161722,-7.4865317,9.717706582,5.542581166,2.65784599,-7.251337726,9.534939922
00:42.7,1.42E+12,5.157076,3.6880307,-7.332951,9.693769839,5.526172296,2.6895321,-7.25893892,9.540667402
00:42.7,1.42E+12,5.3184404,3.7034485,-6.8957105,9.46320043,5.517825652,2.72164931,-7.257738416,9.544803107
00:42.7,1.42E+12,5.5582414,3.7986507,-6.5249314,9.375421291,5.5156342,2.750949378,-7.243041984,9.54228623
00:42.7,1.42E+12,6.0320063,3.5214272,-6.3333297,9.428500126,5.525492694,2.77868969,-7.213882618,9.534956807
00:42.7,1.42E+12,5.7827744,3.4328115,-6.475534,9.335802865,5.533941122,2.802819514,-7.179594928,9.520909669
00:42.7,1.42E+12,5.4751644,3.147804,-6.947802,9.38925172,5.54059628,2.821536588,-7.158683414,9.5135218
00:42.7,1.42E+12,5.5937176,3.0946646,-7.577093,9.913574729,5.551978602,2.835963588,-7.155156742,9.521010836
00:42.7,1.42E+12,5.6944585,2.898273,-7.969877,10.21497838,5.565016492,2.843609688,-7.162398692,9.535957975
00:42.7,1.42E+12,5.5928197,2.8720775,-7.786957,10.00825463,5.574237322,2.853815464,-7.17105968,9.550658084
00:42.7,1.42E+12,5.7877145,3.324437,-7.389833,9.957868862,5.582778564,2.872056538,-7.176846652,9.565453788
00:42.7,1.42E+12,5.8938437,3.304079,-6.8952613,9.653960845,5.590280958,2.891504092,-7.170613618,9.571094759
00:42.7,1.42E+12,5.0623226,2.9852421,-6.4979873,8.761427935,5.57584497,2.90660469,-7.154399334,9.554649603
00:42.7,1.42E+12,5.022356,2.91414,-6.7532067,8.90629398,5.56116949,2.925073284,-7.14341518,9.542595341
00:42.8,1.42E+12,4.874164,3.1528935,-7.115154,9.182789803,5.54351221,2.94812834,-7.14171771,9.537588125
00:42.8,1.42E+12,5.0868716,3.1837294,-7.4440203,9.561685719,5.530216854,2.972656332,-7.144193564,9.538560726
00:42.8,1.42E+12,5.437892,3.480712,-7.5612264,9.942744596,5.526265074,3.002504268,-7.148609382,9.548107365
00:42.8,1.42E+12,5.09735,3.241659,-7.979307,10.00803029,5.512275166,3.029082998,-7.155545962,9.552802737
00:42.8,1.42E+12,4.7909374,3.2004945,-8.340655,10.13719745,5.490749934,3.053587042,-7.171517742,9.560396935
00:42.8,1.42E+12,4.7853985,3.3973353,-8.783734,10.56389648,5.472086738,3.081985988,-7.199641262,9.580844747
00:42.9,1.42E+12,4.733157,3.047363,-8.193362,9.940843893,5.457072958,3.100583314,-7.217879342,9.592497536
00:42.9,1.42E+12,4.8749127,3.033442,-7.0368667,9.082072294,5.447232422,3.12172535,-7.210326056,9.586858198
00:42.9,1.42E+12,5.4033136,3.3015344,-6.224955,8.879526564,5.448061694,3.146289268,-7.190782696,9.580145996
00:42.9,1.42E+12,5.867199,3.2216005,-5.8425007,8.884680541,5.45756094,3.168095918,-7.16602419,9.574808514
00:42.9,1.42E+12,5.828879,2.9798534,-6.0595493,8.920397659,5.466254866,3.183013898,-7.145732396,9.569770343
00:43.0,1.42E+12,5.793103,3.0364356,-6.6671357,9.339736718,5.468323566,3.19994369,-7.137565376,9.569770326
00:43.0,1.42E+12,5.5631814,3.0485604,-7.549251,9.860725048,5.461701334,3.215798718,-7.142053042,9.573609492
00:43.0,1.42E+12,5.305567,3.2886612,-8.224048,10.32469366,5.452396682,3.240832658,-7.157500914,9.587252641
00:43.0,1.42E+12,4.9928675,3.4022748,-8.465496,10.40042414,5.435871052,3.261298098,-7.176089264,9.59898109
00:43.0,1.42E+12,4.590953,3.4548156,-8.004455,9.853116265,5.413552462,3.278775752,-7.182463024,9.597749959
00:43.1,1.42E+12,4.3695636,3.6485128,-7.307803,9.263299433,5.392593046,3.301657168,-7.179933276,9.592342843
00:43.1,1.42E+12,4.2156835,3.488795,-7.149283,9.003106427,5.374489696,3.319622808,-7.180576936,9.589553135
00:43.1,1.42E+12,4.2150846,3.2144156,-7.428602,9.125981235,5.357775448,3.3266462,-7.190630036,9.591321583
00:43.1,1.42E+12,4.045038,2.9183314,-7.9126954,9.353594981,5.337842888,3.322191464,-7.206802404,9.593188067
00:43.1,1.42E+12,4.164939,2.9892838,-8.312215,9.76603567,5.316811628,3.31560516,-7.230492144,9.599797891
00:43.2,1.42E+12,4.4090815,2.9105475,-8.410859,9.93246372,5.297382038,3.306204706,-7.25446329,9.606201503
00:43.2,1.42E+12,4.7042675,2.949766,-8.075108,9.799929662,5.284362114,3.292487232,-7.27438387,9.610356321
00:43.2,1.42E+12,5.0778904,2.9094996,-7.510931,9.52177732,5.278359592,3.278084184,-7.283053838,9.608763237
00:43.2,1.42E+12,5.4706736,2.7608588,-7.302115,9.532654112,5.280269624,3.261729194,-7.287819918,9.608004368
00:43.2,1.42E+12,5.2611094,2.659819,-7.1682935,9.281074342,5.275138292,3.245832254,-7.285879954,9.598521853
00:43.3,1.42E+12,5.081932,2.617008,-7.310947,9.280339959,5.261762102,3.228408486,-7.289795814,9.588308369
00:43.3,1.42E+12,4.706363,2.3876848,-7.9424834,9.535928584,5.240560192,3.212137322,-7.311488702,9.588732478
00:43.3,1.42E+12,4.339027,2.2373972,-8.339009,9.662927747,5.207514912,3.190222892,-7.344057972,9.590119546
00:43.3,1.42E+12,4.3502536,2.1207898,-8.146809,9.475914343,5.171089656,3.163509446,-7.375034562,9.586176645
00:43.4,1.42E+12,4.121529,2.4445665,-7.99712,9.322919873,5.125422616,3.14748078,-7.400553496,9.575928981
00:43.4,1.42E+12,4.4324327,2.6089246,-7.816446,9.356803689,5.08991945,3.13481412,-7.420656696,9.567678221
00:43.4,1.42E+12,4.23155,2.5840764,-7.688462,9.148547107,5.05694601,3.12074338,-7.438074484,9.558957005
00:43.4,1.42E+12,4.282145,2.4554937,-7.9270654,9.338339305,5.03188811,3.101705966,-7.457243612,9.555137001
00:43.4,1.42E+12,4.498595,2.6192532,-8.632848,10.08086846,5.018014958,3.081309382,-7.48458276,9.563885945
00:43.4,1.42E+12,4.8919773,2.4165747,-8.605604,10.1895876,5.016464184,3.05628442,-7.506868408,9.573493338
00:43.5,1.42E+12,5.2679954,2.2978716,-7.7968364,9.686209128,5.022676266,3.027918408,-7.513074502,9.572863389
00:43.5,1.42E+12,4.69813,2.100881,-7.157067,8.815312502,5.013497346,2.996175414,-7.509556822,9.555294242
00:43.5,1.42E+12,4.774621,2.296225,-6.9153194,8.711561132,5.002620958,2.968030944,-7.509949,9.540261456
00:43.5,1.42E+12,4.829557,2.154919,-7.2407427,8.966417989,4.98804727,2.93515631,-7.524265226,9.53208139
00:43.5,1.42E+12,4.3893223,2.1308188,-7.776329,9.180295841,4.95519359,2.907344142,-7.553125212,9.527117305
00:43.6,1.42E+12,4.1626935,2.0531304,-8.407117,9.603279537,4.922791972,2.87975052,-7.591756872,9.532466838
00:43.6,1.42E+12,3.961063,2.2923331,-8.730145,9.856989543,4.892509944,2.862641102,-7.627403732,9.541821594
00:43.6,1.42E+12,3.9405556,2.416425,-8.605156,9.768101044,4.859446704,2.84907631,-7.647964992,9.538912121
00:43.6,1.42E+12,4.0074663,2.3516097,-8.414303,9.611989872,4.82570686,2.838143044,-7.656853512,9.526852351
00:43.7,1.42E+12,4.1794586,2.3447242,-8.428074,9.695258486,4.797439638,2.827595978,-7.669675852,9.520592428
00:43.7,1.42E+12,4.3926153,2.2345533,-8.356672,9.701662978,4.769537654,2.805798304,-7.689012632,9.51546831
00:43.7,1.42E+12,4.4682083,2.2408402,-8.069869,9.492577937,4.741024946,2.784533528,-7.712504786,9.512240652
00:43.7,1.42E+12,4.3619294,2.1826112,-8.012688,9.380479131,4.727017082,2.76848091,-7.7427988,9.524621676
00:43.7,1.42E+12,4.137995,2.1676424,-7.99712,9.261511998,4.709329862,2.753550958,-7.767677066,9.531726036
00:43.7,1.42E+12,4.07797,2.280807,-8.30024,9.525014643,4.693405982,2.736109228,-7.791378786,9.538570533
00:43.8,1.42E+12,4.0409966,2.172133,-8.48241,9.643603823,4.672488482,2.7158773,-7.81214658,9.540208895
00:43.8,1.42E+12,3.9830673,2.2980213,-8.400082,9.576382648,4.643391988,2.692223486,-7.828923692,9.532881656
00:43.8,1.42E+12,4.2682242,2.5279431,-8.427325,9.778959085,4.626809472,2.677949168,-7.837884052,9.528300232
00:43.8,1.42E+12,4.312981,2.5965006,-8.353679,9.753336522,4.617250344,2.66586929,-7.838144532,9.520623013
00:43.8,1.42E+12,4.6556187,2.3650818,-8.137977,9.669284723,4.614654748,2.64522422,-7.825229392,9.502730778
00:43.9,1.42E+12,4.6512775,2.3523583,-8.058941,9.59763002,4.613017158,2.631324126,-7.822540972,9.495866501
00:43.9,1.42E+12,4.747228,2.1414468,-8.08364,9.615986883,4.610463464,2.613484222,-7.843476438,9.506544793
00:43.9,1.42E+12,4.668492,2.097588,-8.114177,9.593464513,4.595767032,2.589405294,-7.881260878,9.520823552
00:43.9,1.42E+12,4.5478425,1.9960991,-8.051606,9.460213645,4.569379902,2.564895266,-7.925442984,9.532334214
00:44.0,1.42E+12,4.55398,2.1469853,-8.0878315,9.526872419,4.543881922,2.548237904,-7.966008628,9.544463709
00:44.0,1.42E+12,4.5095224,2.312541,-8.071216,9.530381203,4.51821031,2.533760012,-7.994090234,9.548276599
00:44.0,1.42E+12,4.2156835,2.4502547,-7.828271,9.222665684,4.491260352,2.521793898,-7.999670634,9.535515411
00:44.0,1.42E+12,4.105213,2.5740473,-7.883057,9.253165996,4.467253272,2.50750162,-7.992850814,9.514084858
00:44.0,1.42E+12,4.11629,2.4742048,-7.9126954,9.256148294,4.449721722,2.48894022,-7.981794802,9.491199341
00:44.0,1.42E+12,4.1502695,2.2941294,-8.019124,9.316335994,4.440908052,2.465726496,-7.982088182,9.480463736
00:44.1,1.42E+12,4.3257046,2.2453308,-8.128696,9.477812477,4.440030872,2.437662856,-7.998506042,9.484753997
00:44.1,1.42E+12,4.4912605,2.4489074,-8.234227,9.693867269,4.445542412,2.416865104,-8.020204922,9.498569213
00:44.1,1.42E+12,4.3498044,2.344275,-8.398436,9.744236801,4.448236808,2.399462292,-8.039601602,9.510934325
00:44.1,1.42E+12,4.3882747,2.2915847,-8.267458,9.636346666,4.455101542,2.386927358,-8.046696854,9.516589358
00:44.2,1.42E+12,4.2914257,2.325115,-8.012388,9.38194307,4.457631276,2.373643982,-8.040700314,9.508907506
00:44.2,1.42E+12,4.2468185,2.533781,-8.010741,9.414217169,4.454386016,2.366108652,-8.032697954,9.498542575
00:44.2,1.42E+12,3.9390588,2.4864793,-8.273894,9.495055843,4.439081842,2.356842918,-8.036673674,9.492445099
00:44.2,1.42E+12,3.9305265,2.5497978,-8.300389,9.531367422,4.416134564,2.349648882,-8.052462834,9.492636901
00:44.2,1.42E+12,4.1327558,2.6252408,-8.145761,9.503945603,4.389376208,2.346936522,-8.069335754,9.492062731
00:44.2,1.42E+12,4.331842,2.9794042,-8.318052,9.840309628,4.37079086,2.353328226,-8.092330924,9.503247437
00:44.3,1.42E+12,4.624633,3.1394215,-8.541837,10.20814268,4.36164488,2.363776496,-8.116948724,9.521803491
00:44.3,1.42E+12,4.738995,3.0765524,-8.36236,10.0921907,4.36229752,2.377553848,-8.125346256,9.532928733
00:44.3,1.42E+12,4.65981,3.3736844,-7.906708,9.77811879,4.36871318,2.400279592,-8.116700236,9.535232554
00:44.4,1.42E+12,4.262985,3.3428485,-7.8866496,9.568015422,4.366967808,2.424720766,-8.111497048,9.537074576
00:44.4,1.42E+12,4.1083565,3.2807276,-7.951016,9.532073339,4.366704358,2.441443988,-8.110574968,9.541257645
00:44.4,1.42E+12,3.9796243,3.394042,-7.903265,9.477263757,4.35764819,2.457146336,-8.112311348,9.543666846
00:44.4,1.42E+12,3.8857696,3.5260675,-7.938891,9.516214989,4.350732582,2.475986158,-8.117319928,9.551020204
00:44.4,1.42E+12,3.9395077,3.5456767,-7.5428147,9.218763354,4.343879836,2.497789818,-8.109634914,9.548628685
00:44.4,1.42E+12,4.160149,3.7320392,-7.14584,9.07182372,4.337110916,2.520045538,-8.079894754,9.52844779
00:44.4,1.42E+12,4.3385777,3.938011,-6.9036436,9.054914801,4.326042924,2.550474264,-8.045855546,9.505754334
00:44.5,1.42E+12,4.7077103,3.936065,-6.8997517,9.233727171,4.314837222,2.583238132,-8.027913852,9.496704695
00:44.5,1.42E+12,4.821923,3.9324725,-6.9326835,9.315437826,4.317313082,2.619869962,-8.023426182,9.506707202
00:44.5,1.42E+12,5.005591,3.996539,-7.2239776,9.654745859,4.321932482,2.653876242,-8.029599346,9.525570896
00:44.5,1.42E+12,5.289101,3.918701,-7.312743,9.839055702,4.331123362,2.689151882,-8.031039352,9.54302365
00:44.5,1.42E+12,5.219047,3.97199,-7.4095917,9.89531229,4.347717856,2.725975306,-8.023704606,9.557323979
00:44.6,1.42E+12,5.1316285,3.9204972,-7.397916,9.820034139,4.367096556,2.763322642,-8.003520586,9.561659071
00:44.6,1.42E+12,4.974755,3.6636314,-7.5312886,9.741185263,4.387370396,2.790748608,-7.979543458,9.559342986
00:44.6,1.42E+12,4.6547203,3.6549494,-7.6484947,9.670809034,4.40165369,2.815519096,-7.960410232,9.557397146
00:44.7,1.42E+12,4.3367815,3.381019,-7.8142004,9.555139515,4.408239994,2.836107282,-7.94840818,9.556260138
00:44.7,1.42E+12,4.2102947,3.4922378,-7.848479,9.566657145,4.408856716,2.859057554,-7.93681628,9.553688112
00:44.7,1.42E+12,4.25101,3.6516564,-7.8239303,9.623905955,4.40602461,2.887399616,-7.926161446,9.552132971
00:44.7,1.42E+12,4.4273434,3.6097436,-8.158784,9.959787889,4.405207312,2.914777684,-7.927939746,9.56147717
00:44.7,1.42E+12,4.221222,3.4783168,-8.23767,9.888205599,4.402393164,2.940691796,-7.932439386,9.5716317
00:44.7,1.42E+12,4.00103,3.6420763,-8.122858,9.759804451,4.399653864,2.970180474,-7.934954146,9.581597549
00:44.7,1.42E+12,3.7986507,3.2582743,-7.9351487,9.381507525,4.394067478,2.98972982,-7.92765232,9.578727406
00:44.8,1.42E+12,3.2817755,3.1590307,-7.936047,9.150429901,4.378883056,3.009467774,-7.91672506,9.568863928
00:44.8,1.42E+12,3.1102324,2.9722192,-7.936346,9.027359547,4.361426358,3.022951732,-7.90745034,9.557883466
00:44.8,1.42E+12,3.3314722,3.1722033,-8.455168,9.62556215,4.342691318,3.035836936,-7.9080072,9.554815527
00:44.8,1.42E+12,3.4952316,3.3468902,-8.267308,9.579493698,4.32633633,3.050844728,-7.90627978,9.551338671
00:44.8,1.42E+12,3.6786003,3.528313,-7.9344006,9.430578226,4.306795962,3.074109352,-7.902208252,9.546564541
00:44.9,1.42E+12,4.138893,3.463797,-7.555538,9.285175248,4.296548272,3.096338126,-7.892140192,9.540315445
00:44.9,1.42E+12,4.061354,3.4805622,-7.5202117,9.2283527,4.282830792,3.123120434,-7.880871626,9.532562762
00:44.9,1.42E+12,4.876709,3.3910482,-8.113728,10.05554974,4.286995132,3.148989638,-7.880862646,9.541804466
00:44.9,1.42E+12,5.141059,3.4149985,-9.008866,10.9202733,4.298859462,3.177367626,-7.900007846,9.571005659
00:45.0,1.42E+12,4.9392786,3.2136672,-8.5364485,10.37280497,4.306565434,3.198701264,-7.908980186,9.58792431
00:45.0,1.42E+12,4.778962,3.5084043,-7.211254,9.335393017,4.311954226,3.22261853,-7.891780946,9.584024547
00:45.0,1.42E+12,5.092111,3.5280135,-6.839128,9.227683647,4.329482776,3.244173706,-7.871998086,9.584124906
00:45.0,1.42E+12,4.8841934,3.0850844,-6.9007998,8.999673817,4.345062384,3.254394448,-7.852352942,9.579055062
00:45.0,1.42E+12,4.9534993,3.0918205,-7.0774326,9.175323511,4.36180657,3.266746762,-7.835647686,9.577438567
00:45.0,1.42E+12,5.2934422,3.2133677,-7.5904155,9.795951703,4.384670024,3.285131528,-7.827073516,9.587030881
00:45.1,1.42E+12,5.009333,3.4111066,-7.635472,9.748307443,4.398342592,3.308447044,-7.817209036,9.59244078
00:45.1,1.42E+12,5.1730924,3.7089872,-7.4886274,9.82837786,4.41197923,3.33364864,-7.802297044,9.595130992
00:45.1,1.42E+12,5.5709653,3.6703675,-7.435937,9.990015567,4.436402448,3.36017049,-7.783047064,9.600046567
00:45.1,1.42E+12,5.1341734,3.4120047,-7.6702,9.84040043,4.451320422,3.38257889,-7.771101904,9.604127643
00:45.1,1.42E+12,4.6810656,3.2371683,-7.876022,9.717168121,4.45911322,3.400819956,-7.768374584,9.610832144
00:45.2,1.42E+12,4.649032,2.871778,-8.311915,9.947287991,4.46715749,3.407579896,-7.774398064,9.62149356
00:45.2,1.42E+12,4.5716434,2.4792943,-8.661737,10.10309415,4.479809182,3.407436196,-7.782154924,9.633654326
00:45.2,1.42E+12,4.473597,2.7536738,-8.361013,9.874326706,4.490670592,3.411513716,-7.783367404,9.640513512
00:45.2,1.42E+12,4.105962,3.33252,-7.8644958,9.477072738,4.490134716,3.4256593,-7.7777421,9.639976054
00:45.3,1.42E+12,3.913462,3.409909,-7.6679544,9.259599824,4.481767116,3.434269396,-7.764740148,9.628361858
00:45.3,1.42E+12,3.682043,3.2543824,-7.5444613,9.003740432,4.462915316,3.436568614,-7.744792634,9.604273813
00:45.3,1.42E+12,3.4103582,3.107987,-7.564819,8.860960035,4.43634258,3.437197306,-7.728841814,9.5796492
00:45.3,1.42E+12,3.4608033,3.0633798,-7.750882,9.024279864,4.412362446,3.430991214,-7.725725294,9.564572422
00:45.3,1.42E+12,3.6724632,2.9279113,-7.786807,9.093624898,4.40055201,3.42269247,-7.723728442,9.555084611
00:45.3,1.42E+12,4.0348597,3.0111382,-7.4558454,8.99648135,4.399082074,3.417300682,-7.71382503,9.544372771
00:45.4,1.42E+12,3.8365219,2.9330008,-7.1947885,8.665239497,4.396220026,3.408079858,-7.6996555,9.528132286
00:45.4,1.42E+12,4.1646395,3.0003607,-7.303612,8.926877099,4.401797424,3.397565722,-7.68694992,9.516345528
00:45.4,1.42E+12,4.9581394,3.3929942,-7.9100013,9.932959102,4.422170058,3.394512072,-7.694293652,9.530629443
00:45.4,1.42E+12,5.242099,3.2587235,-8.950038,10.87207712,4.443809058,3.385045758,-7.730377612,9.566634511
00:45.4,1.42E+12,5.104086,2.804418,-9.051078,10.76282803,4.459119224,3.362373898,-7.7733263,9.600792776
00:45.5,1.42E+12,5.4429812,2.8211832,-8.500523,10.48064932,4.473824642,3.340076262,-7.805341726,9.625731219
00:45.5,1.42E+12,5.244045,2.6653574,-8.0950165,10.00666928,4.482267082,3.31473396,-7.828588386,9.639555848
00:45.5,1.42E+12,5.0154705,2.422263,-7.811955,9.594214053,4.482464672,3.28324844,-7.840347934,9.638345212
00:45.5,1.42E+12,5.3108063,2.186653,-7.3816,9.35276074,4.482898778,3.24860748,-7.841725074,9.628619313
00:45.5,1.42E+12,5.332062,2.1695883,-6.931785,9.010418517,4.485159078,3.212559446,-7.83216894,9.610921437
00:45.6,1.42E+12,5.314399,2.5625212,-6.277945,8.615215903,4.488814488,3.185399926,-7.80976952,9.586825072
00:45.6,1.42E+12,5.2956877,2.820285,-6.2686644,8.677238562,4.495233142,3.168532998,-7.784517036,9.565546138
00:45.7,1.42E+12,5.0763936,2.930606,-6.7623377,8.949158322,4.503666608,3.15404613,-7.766793896,9.551113124
00:45.7,1.42E+12,5.186714,2.9753628,-7.786508,9.817560427,4.520665258,3.145933006,-7.766240048,9.556361542
00:45.7,1.42E+12,5.4175344,2.6075776,-9.04075,10.85745368,4.544810052,3.128239802,-7.790085468,9.582177473
00:45.7,1.42E+12,4.97236,2.2838008,-9.759106,11.18839845,4.559237052,3.10088269,-7.828788982,9.613467323
00:45.7,1.42E+12,4.64529,2.2567072,-8.932525,10.31801577,4.563595984,3.073821962,-7.844263802,9.620631881
00:45.7,1.42E+12,4.412674,2.2219794,-8.17989,9.55612289,4.567425024,3.048695214,-7.843108202,9.613990226
00:45.7,1.42E+12,4.4569817,2.4527993,-8.243657,9.687042429,4.576544058,3.024909674,-7.845524182,9.612534986
00:45.7,1.42E+12,4.5581713,2.9204268,-8.49723,10.07515439,4.59173447,3.018152724,-7.856765808,9.626407923
00:45.8,1.42E+12,4.3911185,3.19301,-8.610694,10.1794541,4.61392133,3.01883231,-7.870258748,9.646988407
00:45.8,1.42E+12,4.1917334,2.9532087,-8.008646,9.50949427,4.63555135,3.0184521,-7.871704748,9.656631102
00:45.8,1.42E+12,3.9392083,2.7611582,-7.483089,8.895952879,4.647706072,3.010231198,-7.852263168,9.642038916
00:45.8,1.42E+12,3.771108,2.6458979,-7.232959,8.575414109,4.6532236,2.996211352,-7.831576188,9.621957325
00:45.8,1.42E+12,3.6577935,2.658322,-6.8945127,8.245024834,4.652807464,2.978811532,-7.81077843,9.598246257
00:45.9,1.42E+12,3.3467405,2.7846594,-6.8960094,8.155362996,4.636964414,2.96522878,-7.797587858,9.575650012
00:45.9,1.42E+12,3.2114217,2.5312362,-6.7081504,7.856186596,4.619965768,2.94624226,-7.781346632,9.54820669
00:46.0,1.42E+12,3.5510654,2.7184968,-6.6298633,7.99721062,4.593452896,2.932791232,-7.751669338,9.507039907
00:46.0,1.42E+12,4.3069935,2.9689262,-7.1144056,8.830599234,4.576771586,2.923869786,-7.71378013,9.465246426
00:46.0,1.42E+12,4.879403,3.1030471,-7.9781094,9.853309319,4.575574074,2.921657384,-7.702613348,9.454856513
00:46.0,1.42E+12,5.5036054,2.9587471,-8.292306,10.38297624,4.590066942,2.91066424,-7.724234388,9.475808177
00:46.0,1.42E+12,5.4655843,2.9307554,-8.136331,10.23043602,4.597536408,2.898719078,-7.750178448,9.495863225
00:46.0,1.42E+12,5.3254757,2.7047255,-8.17031,10.12078045,4.606362054,2.8911119,-7.775568652,9.518285357
00:46.0,1.42E+12,5.2808685,2.3334975,-8.407716,10.1991407,4.612909438,2.87594544,-7.80217432,9.538761701
00:46.0,1.42E+12,5.0454082,1.8562899,-8.560997,10.10903684,4.607948758,2.848803884,-7.82158595,9.545023404
00:46.1,1.42E+12,4.832401,2.0181034,-8.494386,9.978949558,4.604410118,2.82094382,-7.83876423,9.549636246
00:46.1,1.42E+12,4.765041,2.6126668,-8.029752,9.69580119,4.59624909,2.799017412,-7.849586722,9.546984713
00:46.1,1.42E+12,5.123396,2.9614418,-7.8246784,9.810449336,4.587297704,2.784838898,-7.85736155,9.543393388
00:46.1,1.42E+12,5.65539,3.1867232,-8.09307,10.37479748,4.597722036,2.780333268,-7.86581895,9.554081329
00:46.1,1.42E+12,5.8371115,3.1472054,-8.528215,10.80311175,4.620842954,2.77853401,-7.87886281,9.575800202
00:46.2,1.42E+12,5.468578,2.7369087,-8.580457,10.53661506,4.637233874,2.775836624,-7.88423365,9.587586743
00:46.2,1.42E+12,5.180577,2.5023463,-8.25219,10.05975918,4.649412546,2.776297664,-7.87604271,9.586720044
00:46.2,1.42E+12,4.646338,2.3302042,-7.9073067,9.462758988,4.652867366,2.767828272,-7.866968584,9.578488689
00:46.3,1.42E+12,4.2089477,2.4107368,-7.533534,8.959968035,4.65492708,2.749392608,-7.860349348,9.568146595
00:46.3,1.42E+12,4.27032,2.3887327,-7.2302647,8.730315255,4.66206424,2.728969082,-7.851595554,9.557560904
00:46.3,1.42E+12,4.319418,2.569856,-7.3419323,8.89749974,4.67481174,2.715278554,-7.847544974,9.55543609
00:46.3,1.42E+12,4.1029677,2.5628207,-7.4639287,8.894527842,4.68866393,2.704375228,-7.845527168,9.556107446
00:46.3,1.42E+12,4.3617797,2.465523,-7.4169264,8.950682825,4.706683458,2.692418092,-7.838848056,9.554635506
00:46.3,1.42E+12,3.9356158,2.3376887,-7.2926846,8.61029087,4.71194651,2.68061364,-7.828965608,9.544968825
00:46.3,1.42E+12,3.732638,2.1589603,-7.0686007,8.280024871,4.705902076,2.663570082,-7.821220714,9.530639695
00:46.4,1.42E+12,3.323838,1.9372715,-7.060518,8.040636439,4.695648398,2.643655496,-7.818535304,9.518147634
00:46.4,1.42E+12,3.2292347,1.8760487,-6.86712,7.816959292,4.676940302,2.621169256,-7.809805464,9.495949278
00:46.4,1.42E+12,4.0882983,2.4535477,-7.191196,8.628289472,4.65954348,2.602380326,-7.795429358,9.469855885
00:46.4,1.42E+12,4.9288006,2.8981233,-8.226593,10.01843433,4.653277512,2.595168322,-7.780960458,9.45278303
00:46.4,1.42E+12,5.625452,3.4405951,-9.007369,11.16315821,4.663704832,2.607891864,-7.780086278,9.460789633
00:46.5,1.42E+12,6.265072,3.3090189,-9.277108,11.67328001,4.680146648,2.617648578,-7.795617978,9.484642247
00:46.5,1.42E+12,6.0770626,2.9225225,-9.173374,11.38519293,4.696807,2.62279188,-7.817185128,9.51221272
00:46.5,1.42E+12,5.456154,2.7557693,-9.109158,10.96998817,4.70562067,2.629462006,-7.843129188,9.539728202
00:46.5,1.42E+12,4.9066467,2.666555,-8.711434,10.34769442,4.697537478,2.639060046,-7.869725868,9.559626876
00:46.6,1.42E+12,4.487069,2.430945,-8.360714,9.795142694,4.680637618,2.64428718,-7.898304448,9.57532136
00:46.6,1.42E+12,4.199218,2.3869364,-8.063132,9.399201819,4.658333998,2.640775484,-7.934008188,9.591001078
00:46.6,1.42E+12,4.3599834,2.5107288,-7.9396396,9.399526123,4.639619912,2.63458436,-7.967427692,9.605446829
00:46.6,1.42E+12,4.738995,2.508334,-7.5938587,9.29604771,4.63287194,2.62613892,-7.984058112,9.612384617
00:46.6,1.42E+12,5.065017,2.6776319,-7.549401,9.477212948,4.630438,2.620184302,-7.979315972,9.605577667
00:46.6,1.42E+12,4.8964677,2.7460396,-7.253167,9.17194423,4.620016666,2.622953542,-7.943564312,9.571867478
00:46.7,1.42E+12,4.8553033,2.674638,-7.1700897,9.062993152,4.617675532,2.630770286,-7.891783986,9.529359372
00:46.7,1.42E+12,4.5482917,2.6120682,-6.884484,8.654823951,4.615735566,2.637877506,-7.850823166,9.496095536
00:46.7,1.42E+12,4.4843745,2.4812403,-6.6273184,8.37779907,4.617169576,2.643062724,-7.819771734,9.47252906
00:46.7,1.42E+12,4.4888654,2.6128166,-6.7431774,8.511590017,4.61780725,2.64626307,-7.789762142,9.449020011
00:46.7,1.42E+12,4.6690907,2.4920177,-6.923852,8.714946167,4.620025638,2.637694888,-7.758294582,9.421815847
00:46.8,1.42E+12,4.8544054,2.684368,-7.382199,9.234064404,4.629291376,2.627522048,-7.733724682,9.402908053
00:46.8,1.42E+12,4.9701147,2.638713,-8.229886,9.96974774,4.644859002,2.621232134,-7.738149482,9.412113122
00:46.8,1.42E+12,4.9614325,2.5893154,-8.585846,10.24876179,4.665303486,2.617795278,-7.760204622,9.439169301
00:46.8,1.42E+12,4.57793,2.5945547,-8.35772,9.87626654,4.681439926,2.616768414,-7.782699842,9.465186349
00:46.8,1.42E+12,4.184249,2.6873617,-8.157586,9.553850635,4.691969036,2.617349208,-7.807961308,9.491362865
00:46.9,1.42E+12,3.9871087,2.6973908,-7.7255845,9.102615491,4.7047764,2.615603836,-7.82455281,9.510307915
00:46.9,1.42E+12,3.7401223,2.3942711,-7.318731,8.560658407,4.715350412,2.612864534,-7.836764422,9.524397351
00:46.9,1.42E+12,3.8458025,2.657424,-7.1209917,8.518252284,4.721245154,2.611643078,-7.84658699,9.534818185
00:46.9,1.42E+12,4.2300534,2.7180479,-7.3747144,8.925667966,4.719706352,2.606625512,-7.851793166,9.536719559
00:46.9,1.42E+12,4.6337643,2.9889843,-7.7101665,9.479054077,4.714793578,2.604344256,-7.846434308,9.529234454
00:47.0,1.42E+12,5.09735,2.913691,-8.156837,10.05020209,4.70666847,2.603443134,-7.843724928,9.522578971
00:47.0,1.42E+12,5.157675,2.9053085,-8.378826,10.25900356,4.700510284,2.602934196,-7.848574828,9.523150322
00:47.0,1.42E+12,4.853956,2.5845253,-8.635392,10.2377075,4.69107989,2.600530192,-7.857876468,9.525488863
00:47.0,1.42E+12,4.5819716,2.413581,-8.470286,9.92802004,4.677101952,2.602131862,-7.859127868,9.52006645
00:47.0,1.42E+12,4.1950264,2.3770568,-8.188572,9.502702612,4.660094316,2.6125472,-7.851679368,9.507939765
00:47.1,1.42E+12,4.280199,2.345772,-8.147258,9.497397679,4.649050276,2.619100572,-7.844736808,9.498308728
00:47.1,1.42E+12,4.5387115,2.309697,-8.034093,9.512163405,4.644523686,2.613041176,-7.844823628,9.494635972
00:47.1,1.42E+12,5.2284775,2.2170396,-7.6841207,9.554996206,4.646625316,2.598153132,-7.842012474,9.48952691
00:47.1,1.42E+12,5.457052,2.4562423,-7.5761952,9.654598722,4.642658556,2.583543514,-7.831674978,9.475122934
00:47.1,1.42E+12,5.7101755,2.309697,-7.6654096,9.833580671,4.640119836,2.566793346,-7.81441887,9.455732313
00:47.2,1.42E+12,5.4530106,2.0686982,-7.5107813,9.509294011,4.639808488,2.553429136,-7.793025356,9.435185892
00:47.2,1.42E+12,4.9955616,1.7705182,-7.3054085,9.025484128,4.63610818,2.538792574,-7.774089726,9.414500391
00:47.2,1.42E+12,5.288353,2.0944445,-6.9728,8.998517381,4.64894848,2.53407738,-7.755399592,9.405215559
00:47.3,1.42E+12,5.050797,2.1406984,-6.946006,8.850996516,4.665785466,2.528676612,-7.743649032,9.403036128
00:47.3,1.42E+12,5.0422645,2.172133,-6.7829947,8.726488994,4.681224356,2.524344618,-7.734703632,9.402959603
00:47.3,1.42E+12,5.2154546,2.3387365,-6.898704,8.958949268,4.699145088,2.519722228,-7.725839066,9.404188594
00:47.3,1.42E+12,5.450765,2.5141718,-7.4895253,9.598171083,4.726101034,2.51874925,-7.726350998,9.418261458
00:47.3,1.42E+12,5.256918,2.3201752,-8.2848215,10.0824931,4.7440038,2.515842294,-7.7437089,9.440897664
00:47.3,1.42E+12,5.1347723,2.1531227,-8.481663,10.1459564,4.76798693,2.512150974,-7.767488468,9.471610975
00:47.3,1.42E+12,4.514462,2.0871098,-8.523425,9.868392382,4.78362341,2.510713964,-7.796584954,9.503378325
00:47.4,1.42E+12,3.993246,2.5724006,-8.568631,9.797177945,4.79701157,2.523416546,-7.826747214,9.538509155
00:47.4,1.42E+12,3.7019517,2.4161255,-8.270302,9.377633176,4.80646591,2.534218082,-7.854810854,9.569722633
00:47.4,1.42E+12,3.8257444,2.4454646,-8.008945,9.206509509,4.801214832,2.53405642,-7.871165834,9.581287033
00:47.4,1.42E+12,3.804339,2.3345454,-7.989935,9.152166889,4.7787256,2.522784862,-7.866432674,9.563961684
00:47.4,1.42E+12,4.089795,2.4589367,-7.902367,9.231478594,4.74801246,2.503151694,-7.844332634,9.525328092
00:47.5,1.42E+12,4.4771895,2.314487,-7.788454,9.276965646,4.71225481,2.483261056,-7.814559554,9.477401805
00:47.5,1.42E+12,4.7484255,2.4182212,-7.9320054,9.555733785,4.685682068,2.47317503,-7.789732182,9.440812622
00:47.5,1.42E+12,4.744833,2.6324258,-8.433612,10.02840551,4.671455648,2.47070816,-7.776221262,9.421980969
00:47.5,1.42E+12,4.8853908,2.7074199,-8.695717,10.33502104,4.67103053,2.471525458,-7.775906922,9.421727501
00:47.6,1.42E+12,4.4577303,2.7497818,-8.382269,9.884082808,4.670443756,2.477902194,-7.776338022,9.423506303
00:47.6,1.42E+12,4.511768,2.7560687,-7.9564047,9.55281848,4.676694756,2.48528484,-7.774203476,9.426578637
00:47.6,1.42E+12,4.328549,2.6705964,-7.750882,9.270630688,4.676066068,2.488482192,-7.770428324,9.424000728
00:47.6,1.42E+12,4.3258543,2.6638606,-7.668254,9.19843944,4.667803254,2.491592724,-7.77191623,9.422048563
00:47.6,1.42E+12,4.1995173,2.3210733,-7.5567355,8.951400909,4.65049326,2.484461552,-7.77206292,9.411532322
00:47.6,1.42E+12,4.355343,2.3022125,-7.607031,9.062897753,4.639670766,2.47558501,-7.7791402,9.409351392
00:47.7,1.42E+12,4.762796,2.4043002,-7.8794646,9.515820909,4.63782062,2.470178254,-7.793327698,9.418407947
00:47.7,1.42E+12,5.227579,2.225123,-8.124505,9.913946543,4.651406366,2.46243935,-7.818128118,9.443590399
00:47.7,1.42E+12,5.4835467,2.2757177,-7.861951,9.851824653,4.67138981,2.458328898,-7.84282077,9.473070911
00:47.7,1.42E+12,5.8311243,2.072141,-7.4636292,9.695439122,4.698234988,2.447515386,-7.857229806,9.496747893
00:47.7,1.42E+12,5.939499,2.311194,-7.1974826,9.613689295,4.723643154,2.443898912,-7.862702418,9.514722756
00:47.8,1.42E+12,5.8052278,2.1004322,-6.9457064,9.29275646,4.742659602,2.432220196,-7.853972566,9.515896597
00:47.8,1.42E+12,5.807473,2.0757334,-7.2365513,9.508053771,4.759406768,2.420960604,-7.834105872,9.506662717
00:47.8,1.42E+12,5.7594233,2.382745,-7.8724294,10.04109432,4.775366584,2.416829196,-7.81983754,9.502509368
00:47.8,1.42E+12,5.778434,2.5969496,-8.717273,10.77614473,4.799376664,2.416877094,-7.8270286,9.520506932
00:47.8,1.42E+12,5.136419,2.1844075,-8.848699,10.46202228,4.818420064,2.40681801,-7.84085086,9.538670365
00:47.9,1.42E+12,4.319268,2.3787034,-8.495883,9.82315295,4.82506325,2.400444262,-7.85625683,9.553081114
00:47.9,1.42E+12,3.9218445,2.5355773,-8.476124,9.677535564,4.828697694,2.403270386,-7.87940469,9.575418657
00:47.9,1.42E+12,3.4515226,2.3204746,-8.648865,9.596899313,4.820812096,2.396531398,-7.909962156,9.596991597
00:47.9,1.42E+12,3.2654595,2.2605991,-8.6225195,9.493227932,4.801520218,2.387382422,-7.934918258,9.608342797
00:47.9,1.42E+12,3.7145257,2.5385711,-8.4851055,9.604116813,4.783135446,2.378374158,-7.950417038,9.610844052
00:48.0,1.42E+12,3.9893541,2.5586293,-7.9809537,9.282087696,4.760975528,2.371272924,-7.946899372,9.595481764
00:48.0,1.42E+12,4.4059377,2.647694,-7.173682,8.825207305,4.745940782,2.366120634,-7.922796492,9.566805839
00:48.0,1.42E+12,4.7119017,2.4766,-6.7042584,8.560528365,4.743099696,2.363962128,-7.88417382,9.533262256
00:48.0,1.42E+12,5.024751,2.2411394,-6.842571,8.78018259,4.751955284,2.360513296,-7.85161952,9.510305507
00:48.0,1.42E+12,5.2163525,2.1448896,-7.518715,9.399040379,4.772381806,2.355869952,-7.83822238,9.508232262
00:48.1,1.42E+12,5.2434464,1.927392,-8.368498,10.06182532,4.791646754,2.347502352,-7.84264718,9.519520815
00:48.1,1.42E+12,5.031936,2.05822,-8.708441,10.26613823,4.801511244,2.342472812,-7.85613414,9.534600311
00:48.1,1.42E+12,4.4518924,2.0963905,-8.717571,10.01050664,4.785979542,2.34005983,-7.876803146,9.54371052
00:48.1,1.42E+12,4.0046225,2.1561162,-8.645572,9.768917731,4.756930952,2.334057308,-7.898190682,9.5459969
00:48.1,1.42E+12,3.6732116,2.0577707,-8.711884,9.675940602,4.716191674,2.329018782,-7.91912017,9.542844099
00:48.2,1.42E+12,3.8419106,2.2694306,-8.652607,9.735409606,4.683969674,2.33303343,-7.941956684,9.547366411
00:48.2,1.42E+12,4.485722,2.6026378,-8.384813,9.859032124,4.673772882,2.349675822,-7.963544774,9.564037371
00:48.2,1.42E+12,5.045857,2.7743309,-7.912995,9.786371885,4.668922962,2.36327355,-7.982348674,9.579794461
00:48.2,1.42E+12,5.4658837,2.7068212,-7.201075,9.437067701,4.677224696,2.374596006,-7.987450054,9.591515885
00:48.2,1.42E+12,5.8350163,2.5056396,-6.907386,9.382836798,4.693079732,2.381266138,-7.98993788,9.604642841
00:48.3,1.42E+12,5.804929,2.2691314,-6.670279,9.12900761,4.70486922,2.379874036,-7.98536938,9.608044007
00:48.3,1.42E+12,5.96285,2.1604574,-6.811735,9.307141882,4.71511092,2.372799748,-7.971813574,9.602223423
00:48.3,1.42E+12,6.163583,1.8797909,-6.8485584,9.403516437,4.73324422,2.363992062,-7.943088312,9.58864389
00:48.3,1.42E+12,6.691086,2.3802004,-7.1947885,10.10944941,4.764370494,2.368533616,-7.917350822,9.58791375
00:48.3,1.42E+12,6.562952,2.3248155,-7.8270736,10.47569507,4.805340294,2.37328773,-7.903423794,9.600059804
00:48.4,1.42E+12,5.749993,2.1302202,-8.140073,10.19122397,4.840475234,2.364444122,-7.894852634,9.607940725
00:48.4,1.42E+12,4.7172904,2.400109,-8.185129,9.747291351,4.860782008,2.364123792,-7.893149174,9.615333888
00:48.4,1.42E+12,3.7488043,2.3535557,-8.137677,9.263614039,4.859243206,2.362285614,-7.895723814,9.616475979
00:48.4,1.42E+12,3.1599288,2.2420378,-8.435558,9.282807888,4.846355002,2.360435462,-7.904636274,9.619088799
00:48.4,1.42E+12,3.0767019,2.0887563,-8.5204315,9.296598862,4.82609314,2.353031854,-7.916997564,9.620391204
00:48.5,1.42E+12,3.4459841,2.2936802,-8.034542,9.038232152,4.805469032,2.352615718,-7.921919324,9.615616534
00:48.5,1.42E+12,3.7612286,2.5602758,-7.690857,8.935946181,4.785725094,2.35545681,-7.917096356,9.603220782
00:48.5,1.42E+12,4.4098296,2.7321186,-7.278015,8.93759316,4.779025026,2.357450666,-7.893984416,9.581404535
00:48.5,1.42E+12,4.930597,2.5737479,-7.0388126,8.971056117,4.77992915,2.354777226,-7.860846328,9.554125237
00:48.6,1.42E+12,5.1037865,2.0969894,-6.9864216,8.902588834,4.792850274,2.341721378,-7.83292938,9.534495357
00:48.6,1.42E+12,5.504204,2.2001247,-7.6064324,9.643372036,4.812698994,2.330602498,-7.825929934,9.536306428
00:48.6,1.42E+12,5.661377,2.252366,-8.252789,10.25830729,4.839355554,2.32223789,-7.835968074,9.55605996
00:48.6,1.42E+12,5.4634886,2.2998176,-8.361013,10.24916616,4.86210824,2.31495703,-7.849823254,9.577074495
00:48.6,1.42E+12,5.2641034,2.254312,-8.04981,9.878873834,4.883399962,2.313621804,-7.859684744,9.595623953
00:48.6,1.42E+12,5.060377,2.3302042,-8.012089,9.758628856,4.897500642,2.314181638,-7.867785904,9.609538575
00:48.7,1.42E+12,5.014123,2.3150856,-8.017926,9.735922562,4.902527182,2.312397346,-7.870555132,9.613940608
00:48.7,1.42E+12,5.300178,2.1980293,-8.310418,10.09882503,4.903979162,2.311855472,-7.874273392,9.617638178
00:48.7,1.42E+12,5.127138,2.18321,-8.175848,9.894364077,4.896850988,2.310005318,-7.880551332,9.618488967
00:48.7,1.42E+12,5.1370177,2.2785616,-7.6722956,9.510253077,4.882968856,2.31413373,-7.88472466,9.614785246
00:48.7,1.42E+12,5.096302,2.2344036,-7.167545,9.074059447,4.866104916,2.312597922,-7.884125908,9.603992649
00:48.8,1.42E+12,5.002148,2.1906943,-6.7359924,8.67146007,4.85004332,2.314403164,-7.879931628,9.591566721
00:48.8,1.42E+12,5.140311,2.3031106,-6.6219296,8.693507189,4.83670008,2.318950708,-7.867639194,9.575275789
00:48.8,1.42E+12,5.369484,2.52944,-6.9521427,9.141209617,4.828901294,2.321884608,-7.84923346,9.557278095
00:48.8,1.42E+12,5.306615,2.0938458,-6.937174,8.981577595,4.819464914,2.311822532,-7.81363148,9.521386753
00:48.8,1.42E+12,5.485044,2.1752765,-7.367529,9.439174704,4.826437414,2.311639912,-7.78400808,9.500929801
00:48.9,1.42E+12,5.738317,2.1258793,-8.49723,10.47141645,4.854818394,2.30658343,-7.78403502,9.513895071
00:48.9,1.42E+12,5.38595,2.1588106,-9.501791,11.13341604,4.884100504,2.299048096,-7.80454836,9.543012681
00:48.9,1.42E+12,4.454437,2.0131636,-10.203232,11.31374297,4.904158792,2.292901876,-7.8356357,9.577349554
00:48.9,1.42E+12,3.69791,2.381398,-10.214908,11.12159792,4.912807802,2.295317854,-7.86748347,9.609916953
00:48.9,1.42E+12,2.7167006,2.2829027,-9.614207,10.24817462,4.8928513,2.290204486,-7.8900655,9.62279811
00:49.0,1.42E+12,2.5134232,2.3089485,-8.994795,9.620544499,4.863332682,2.28521087,-7.910342326,9.629567246
00:49.0,1.42E+12,2.9265642,2.3742127,-8.525821,9.32154964,4.833745212,2.279741244,-7.937385106,9.639494092
00:49.0,1.42E+12,3.6432738,2.3903792,-7.810608,8.94387802,4.812372654,2.278016828,-7.959512098,9.647161085
00:49.0,1.42E+12,4.4243493,2.7632537,-7.2317615,8.916771396,4.80036462,2.288459114,-7.967295908,9.649892862
00:49.0,1.42E+12,5.20797,2.706971,-6.816525,8.995313035,4.80019697,2.299700742,-7.953252108,9.641818315
00:49.1,1.42E+12,5.7746916,2.398163,-6.789431,9.230093291,4.810821874,2.309116162,-7.921670768,9.625183674
00:49.1,1.42E+12,5.8668995,2.180815,-6.749315,9.20487462,4.827521144,2.311568062,-7.882488248,9.603958402
00:49.1,1.42E+12,5.997728,1.7308507,-6.7994604,9.230452158,4.858437856,2.304257266,-7.844126036,9.588357312
00:49.1,1.42E+12,5.6356306,1.7004639,-6.643784,8.876473149,4.891058018,2.29514422,-7.804090276,9.570508421
00:49.1,1.42E+12,5.2539244,1.8226099,-6.2104354,8.33637429,4.922672274,2.290441004,-7.754061304,9.543717094
00:49.2,1.42E+12,5.041666,1.8968555,-5.6866746,7.832925689,4.946667382,2.282989502,-7.694742656,9.505667416
00:49.2,1.42E+12,5.3126025,2.0098705,-5.0355287,7.590775589,4.963204992,2.271134156,-7.62775697,9.460302285
00:49.2,1.42E+12,6.103857,2.1692889,-5.3676877,8.412785261,4.984364992,2.259033316,-7.576850824,9.432830553
00:49.2,1.42E+12,7.3378906,2.4869285,-6.190826,9.917448179,5.02180513,2.254635462,-7.556645844,9.442438162
00:49.2,1.42E+12,7.9596977,2.3275099,-7.251371,11.01619132,5.064298758,2.251072868,-7.563525544,9.475105253
00:49.3,1.42E+12,7.8276725,1.9190094,-7.8746743,11.26789906,5.104753628,2.244070428,-7.58761345,9.517883082
00:49.3,1.42E+12,6.72267,1.7741107,-7.6899586,10.36712226,5.119950028,2.236343494,-7.605177922,9.539082689
00:49.3,1.42E+12,5.4208274,2.2968237,-8.062235,9.98300566,5.105094916,2.24468415,-7.629451454,9.550672474
00:49.3,1.42E+12,3.9775286,2.2508693,-8.738229,9.86122672,5.050823768,2.242097528,-7.660320264,9.54570802
00:49.3,1.42E+12,3.0835876,2.5969496,-9.429641,10.25528103,4.98123648,2.24754021,-7.692371612,9.541299739
00:49.4,1.42E+12,2.4158263,2.3417304,-10.1189575,10.66364004,4.914553146,2.251770414,-7.731949302,9.550748061
00:49.4,1.42E+12,1.9996916,2.6890082,-10.227033,10.76205071,4.86020117,2.257548398,-7.772787382,9.571043248
00:49.4,1.42E+12,1.8959574,3.012186,-10.232422,10.83376107,4.823144232,2.270721004,-7.814682282,9.602446188
00:49.4,1.42E+12,2.1552181,3.1774426,-10.67086,11.34056258,4.803050018,2.2894291,-7.859388322,9.643601282
00:49.4,1.42E+12,2.4254065,3.1395712,-11.22411,11.90462722,4.79002411,2.310445398,-7.913461892,9.695761849
00:49.5,1.42E+12,3.0485604,2.6593697,-10.776091,11.51043461,4.782075636,2.317759188,-7.968292872,9.745205899
00:49.5,1.42E+12,3.4530194,2.4028034,-9.432335,10.32791125,4.775911452,2.31460974,-8.003122432,9.7730452
00:49.5,1.42E+12,3.6997063,2.208208,-7.9358974,9.03008731,4.761708986,2.304131528,-8.01628008,9.774895083
00:49.5,1.42E+12,4.2953176,2.2085073,-7.1768255,8.650669456,4.749003398,2.296826716,-8.019040338,9.76848735
00:49.5,1.42E+12,4.887187,1.9944525,-6.781348,8.593550968,4.744671408,2.294775978,-8.014938866,9.762306592
00:49.6,1.42E+12,5.6766453,2.1237836,-6.5566654,8.928864419,4.748120234,2.293249156,-7.993943526,9.74801644
00:49.6,1.42E+12,6.6425867,2.1070185,-6.3554835,9.431630588,4.767744428,2.290342206,-7.955997416,9.731482906
00:49.6,1.42E+12,7.2600527,1.9272423,-6.12167,9.690070778,4.80367571,2.2828907,-7.911210556,9.720300998
00:49.6,1.42E+12,7.3832464,1.9820284,-5.9242306,9.67146691,4.84605857,2.277445028,-7.868698968,9.71615286
00:49.6,1.42E+12,7.333101,1.7030085,-5.981711,9.615376993,4.89151305,2.264901114,-7.828091408,9.713287823
00:49.7,1.42E+12,6.972351,1.5639478,-6.1550503,9.431026211,4.93067761,2.249878358,-7.790833894,9.707189896
00:49.7,1.42E+12,6.2815375,1.7871337,-6.4162574,9.155321909,4.9503048,2.241660446,-7.752950682,9.688319833
00:49.7,1.42E+12,5.817203,1.6991167,-6.226901,8.689139449,4.9641061,2.23197858,-7.713971742,9.664215341
00:49.7,1.42E+12,5.2597623,1.468596,-5.7573276,7.935281643,4.966560992,2.215779268,-7.675672382,9.632715912
00:49.7,1.42E+12,5.4338503,2.12064,-5.7068825,8.160413651,4.973311958,2.213503996,-7.646459132,9.614442996
00:49.8,1.42E+12,6.257288,2.251019,-6.545738,9.330992746,4.998414758,2.21471049,-7.642654044,9.62763365
00:49.8,1.42E+12,6.9043922,2.3411317,-7.732321,10.62733821,5.033696382,2.215470912,-7.664861872,9.66631027
00:49.8,1.42E+12,7.0582724,1.9327807,-8.544232,11.24983338,5.06747215,2.203537726,-7.696703658,9.708482745
00:49.8,1.42E+12,6.6057634,1.9715501,-8.817564,11.19252227,5.093455118,2.201091812,-7.734311458,9.752701639
00:49.9,1.42E+12,5.173392,2.2911355,-8.361762,10.09615523,5.087222078,2.203408992,-7.754196118,9.765841249
00:49.9,1.42E+12,3.6570451,2.5396187,-7.856113,9.030069406,5.04559664,2.21168378,-7.741373778,9.737014308
00:49.9,1.42E+12,2.6673033,2.7936406,-7.816446,8.718701897,4.991223706,2.22438038,-7.707666878,9.688720026
00:49.9,1.42E+12,2.6658065,2.6753864,-8.610245,9.402155904,4.955451096,2.237624836,-7.675807138,9.650488284
00:49.9,1.42E+12,3.0626311,2.425107,-9.599688,10.36411419,4.942745518,2.238499016,-7.663502738,9.63533861
00:49.9,1.42E+12,3.1232553,2.3276596,-8.9445,9.755859938,4.950876612,2.239394154,-7.650108598,9.625492316
00:50.0,1.42E+12,3.6571949,3.127147,-7.3235207,8.76288071,4.973752046,2.255758124,-7.616683112,9.60833904
00:50.0,1.42E+12,4.2083488,3.2471974,-6.346203,8.278211346,4.999387738,2.273217818,-7.573090752,9.587472274
00:50.0,1.42E+12,4.413572,2.8719277,-6.6355515,8.471017071,5.014793702,2.282848788,-7.549589622,9.578015055
00:50.0,1.42E+12,4.9075446,2.7601104,-7.6646614,9.510480419,5.024457608,2.282785922,-7.55824762,9.589889236
00:50.0,1.42E+12,5.7053857,2.4661217,-8.525671,10.55084111,5.034405922,2.277968936,-7.59243054,9.620999797
00:50.1,1.42E+12,5.948031,2.376608,-8.935818,10.99437045,5.03787271,2.277537836,-7.63535828,9.656285341
00:50.1,1.42E+12,5.9261765,2.6873617,-8.541089,10.73739643,5.03905825,2.28766877,-7.67119376,9.686935777
00:50.1,1.42E+12,5.833519,2.3628364,-7.874525,10.08072833,5.03577407,2.300308484,-7.692695052,9.7039413
00:50.1,1.42E+12,5.125192,2.223177,-7.5462575,9.389148591,5.025565298,2.310762746,-7.710744522,9.714194809
00:50.2,1.42E+12,4.686604,1.9772383,-8.407866,9.826796987,5.01421889,2.313855314,-7.754693134,9.744003263
00:50.2,1.42E+12,4.392765,1.8265017,-8.69901,9.9149013,5.00124087,2.312448238,-7.814939842,9.785642775
00:50.2,1.42E+12,4.6128078,2.0354671,-8.086783,9.529804899,4.987244976,2.31296017,-7.875964928,9.824423361
00:50.2,1.42E+12,4.4334807,2.3689737,-7.4666233,9.001013888,4.95383745,2.316953866,-7.91794364,9.836187934
00:50.2,1.42E+12,4.827162,2.3998096,-7.452702,9.198007729,4.903622878,2.315211488,-7.94318116,9.821799125
00:50.2,1.42E+12,5.1930013,2.3752606,-7.3880367,9.337676997,4.84828895,2.316166502,-7.945914474,9.788228838
00:50.3,1.42E+12,5.1861153,2.4276516,-7.3851924,9.345070946,4.795457806,2.326339346,-7.936124836,9.749772276
00:50.3,1.42E+12,5.0448093,2.431843,-7.722591,9.539516393,4.761900592,2.339493992,-7.936777484,9.733220159
00:50.3,1.42E+12,5.0880694,2.2676344,-7.849527,9.625263119,4.755245432,2.338910206,-7.932523324,9.726065308
00:50.3,1.42E+12,5.274731,2.1877007,-8.159682,9.959379088,4.78118948,2.337646834,-7.920952384,9.728028355
00:50.3,1.42E+12,5.2596126,1.8986517,-8.236622,9.955417869,4.82470998,2.323680876,-7.897092004,9.722031092
00:50.4,1.42E+12,5.2989807,2.1974304,-8.089627,9.917154926,4.882373068,2.320794876,-7.856505394,9.70710139
00:50.4,1.42E+12,5.0252,2.9014165,-7.505692,9.487163177,4.942883236,2.325043042,-7.802078574,9.681603639
00:50.4,1.42E+12,4.547244,3.2759376,-6.801107,8.812732356,4.995908968,2.330318074,-7.733452274,9.641183065
00:50.4,1.42E+12,4.041895,2.835254,-6.262078,7.974283749,5.033642506,2.323474302,-7.645276634,9.573857488
00:50.4,1.42E+12,3.8166132,2.1348605,-6.02542,7.445122689,5.06146664,2.303380088,-7.541302834,9.484667398
00:50.5,1.42E+12,4.3405237,1.8500029,-6.4406567,7.984028773,5.087305906,2.287192752,-7.454594148,9.414139281
00:50.5,1.42E+12,5.226232,2.305805,-7.442972,9.382327526,5.122770158,2.285252784,-7.414806888,9.395227606
00:50.5,1.42E+12,5.7299347,2.5427623,-7.9444294,10.11986908,5.163374726,2.29194387,-7.414977528,9.417023242
00:50.5,1.42E+12,6.1644807,2.1757255,-7.7838135,10.16476052,5.200757988,2.291288234,-7.427117288,9.447305063
00:50.5,1.42E+12,6.0626926,2.3080504,-7.1263804,9.636837439,5.2242681,2.297560192,-7.434017936,9.468170793
00:50.6,1.42E+12,5.702242,2.2882915,-6.924151,9.25719768,5.224780034,2.30085035,-7.441367648,9.474737458
00:50.6,1.42E+12,5.720205,2.4682174,-6.9281926,9.317333045,5.2063324,2.308074328,-7.45282183,9.472451507
00:50.6,1.42E+12,5.8745337,2.5397685,-7.2317615,9.657067082,5.17862202,2.320324852,-7.47502366,9.471791433
00:50.6,1.42E+12,5.9418936,2.4011567,-7.5664654,9.915798087,5.149794964,2.328707418,-7.507868356,9.476678057
00:50.6,1.42E+12,6.048173,2.7021809,-7.7631564,10.20533074,5.124096404,2.348690866,-7.543497264,9.488477132
00:50.7,1.42E+12,5.830825,2.941533,-8.343051,10.59517044,5.101265884,2.37624257,-7.587257278,9.511760016
00:50.7,1.42E+12,4.685107,2.3408322,-8.786878,10.22931806,5.069337274,2.38731654,-7.63466969,9.533239939
00:50.7,1.42E+12,3.7860768,1.8236576,-9.268576,10.17676794,5.02871475,2.389807358,-7.69550319,9.562992509
00:50.7,1.42E+12,3.3477883,1.678759,-9.524993,10.23481362,4.99047527,2.394010618,-7.770856498,9.608983148
00:50.7,1.42E+12,3.2927027,2.4513025,-9.063652,9.949902642,4.947652318,2.400623868,-7.837991888,9.644772928
00:50.8,1.42E+12,3.5685792,2.6702971,-8.321645,9.440075191,4.893878142,2.40900943,-7.873510028,9.646954577
00:50.8,1.42E+12,4.0535707,2.9939241,-7.894583,9.365866627,4.836861712,2.422065278,-7.876755268,9.621725146
00:50.8,1.42E+12,4.533323,2.8472292,-7.675439,9.357889473,4.786362724,2.440354248,-7.859379408,9.583886267
00:50.8,1.42E+12,4.8306046,2.4771986,-7.767348,9.476441772,4.750859548,2.450467218,-7.838375088,9.549564657
00:50.8,1.42E+12,4.871769,2.4315436,-7.453301,9.230288905,4.744827088,2.45327538,-7.820205868,9.532247331
00:50.9,1.42E+12,4.718937,2.3019133,-7.3202276,9.008490626,4.766064926,2.448521272,-7.80948816,9.531815755
00:50.9,1.42E+12,4.8654823,2.3566992,-7.271429,9.060939732,4.810028506,2.439782444,-7.79858782,9.538660512
00:50.9,1.42E+12,4.9011083,2.496658,-7.5721536,9.359042359,4.854734542,2.436207876,-7.777825992,9.537798241
00:50.9,1.42E+12,5.0841775,2.3710694,-7.6490936,9.485750569,4.89516547,2.435127124,-7.738814104,9.520230969
00:50.9,1.42E+12,5.090614,2.3724165,-7.7136097,9.541618602,4.934512644,2.436022262,-7.714196298,9.515946142
00:51.0,1.42E+12,5.043013,2.4284,-7.575297,9.418823245,4.962229006,2.422047322,-7.719231824,9.529064993
00:51.0,1.42E+12,4.9561934,2.4228616,-7.6775346,9.454028183,4.977185898,2.405560606,-7.745858456,9.552581329
00:51.0,1.42E+12,4.9957113,2.497706,-7.6678047,9.486353123,4.988828684,2.398076172,-7.76650352,9.57288805
00:51.0,1.42E+12,5.1165104,2.7134075,-7.9080553,9.801969066,4.993008,2.397142114,-7.771371398,9.578717823
00:51.0,1.42E+12,5.1374664,2.9666808,-7.9185333,9.894338058,4.981649614,2.407153296,-7.759228644,9.565587762
00:51.1,1.42E+12,5.016668,3.094964,-7.7453437,9.733247609,4.963022354,2.421520416,-7.735419158,9.540365306
00:51.1,1.42E+12,4.6762757,3.0463152,-7.4303985,9.292922715,4.938024338,2.428699486,-7.713205348,9.511475831
00:51.1,1.42E+12,4.338129,3.197351,-7.5345817,9.263494915,4.908116538,2.445389778,-7.706406482,9.495131163
00:51.2,1.42E+12,4.1468267,3.2039373,-7.731572,9.340160143,4.888549232,2.465004984,-7.710112772,9.494151394
00:51.2,1.42E+12,4.1406894,3.262316,-7.9823008,9.565831927,4.87763094,2.490706538,-7.701601468,9.488932093
00:51.2,1.42E+12,4.2608895,3.3808694,-7.9861927,9.662542682,4.87499343,2.521793892,-7.687345122,9.48388492
00:51.2,1.42E+12,4.4643164,3.6149826,-7.8588076,9.734427411,4.872023602,2.553384202,-7.682785614,9.487977371
00:51.2,1.42E+12,4.453539,3.7543428,-7.6161623,9.588275531,4.872424768,2.581091584,-7.685776394,9.499722604
00:51.3,1.42E+12,4.608916,3.9140606,-7.484586,9.621902341,4.868059848,2.611376604,-7.686414074,9.508200496
00:51.3,1.42E+12,4.4888654,4.1064105,-7.211254,9.434760412,4.85397713,2.645999602,-7.68287842,9.510142164
00:51.3,1.42E+12,4.56356,4.0272255,-7.354955,9.546726567,4.841526024,2.67799108,-7.682273672,9.514175276
00:51.3,1.42E+12,4.443809,4.021687,-7.561975,9.649086519,4.829506018,2.70978796,-7.679061352,9.516366679
00:51.3,1.42E+12,4.410728,4.0902443,-7.5544906,9.65686016,4.81595919,2.746240158,-7.673160624,9.51699862
00:51.3,1.42E+12,4.5114684,4.0853047,-7.5799375,9.721034622,4.800693938,2.784192238,-7.661565734,9.512231731
00:51.4,1.42E+12,4.383784,4.153862,-7.6110725,9.715994868,4.783177366,2.829296444,-7.649054744,9.50744327
00:51.4,1.42E+12,4.577631,4.1561074,-7.762109,9.92362184,4.768750372,2.868469984,-7.642504384,9.507572609
00:51.4,1.42E+12,4.481231,4.157155,-7.6761875,9.812605337,4.757870992,2.893584754,-7.645914294,9.514081452
00:51.4,1.42E+12,4.426445,4.118236,-7.61242,9.721225301,4.755455012,2.910430722,-7.662140554,9.532251311
00:51.4,1.42E+12,4.5060797,4.2556505,-7.4052505,9.656761901,4.764738706,2.938838652,-7.685004004,9.565900874
00:51.4,1.42E+12,4.484225,4.135001,-7.19898,9.435667447,4.778090942,2.978841462,-7.708475204,9.605711769
00:51.5,1.42E+12,4.624633,4.2396336,-7.0567756,9.442446998,4.783773128,3.026634076,-7.720797582,9.634880134
00:51.6,1.42E+12,4.676575,4.088897,-7.167545,9.484889759,4.772779988,3.062295916,-7.715289042,9.636931378
00:51.6,1.42E+12,4.7508206,3.926934,-7.094347,9.397918193,4.753197706,3.08997935,-7.698287394,9.62249236
00:51.6,1.42E+12,4.9291,3.9809716,-6.992559,9.436103171,4.728490092,3.126084272,-7.682462304,9.607919214
00:51.6,1.42E+12,4.6825624,3.9806721,-7.3991137,9.618681019,4.700887488,3.159536706,-7.68791697,9.607556085
00:51.6,1.42E+12,4.791386,3.8851707,-7.728429,9.888404622,4.682670368,3.19147429,-7.70400253,9.620180224
00:51.6,1.42E+12,4.9159274,3.8184097,-7.9674816,10.11075457,4.666584816,3.218478136,-7.72478831,9.636048654
00:51.6,1.42E+12,4.91458,3.866759,-8.052505,10.19547736,4.647385742,3.245017946,-7.74120318,9.64681686
00:51.6,1.42E+12,4.9529004,3.960614,-8.082293,10.27332204,4.627605878,3.276207092,-7.751519732,9.653967339
00:51.6,1.42E+12,4.9353867,3.7857773,-7.9535604,10.09699335,4.605350152,3.29787902,-7.755327812,9.651800591
00:51.7,1.42E+12,4.636009,3.5952237,-7.806267,9.765040572,4.581453832,3.310952834,-7.744592132,9.635197994
00:51.7,1.42E+12,4.51057,3.6440222,-7.543264,9.514461167,4.577963092,3.337016634,-7.719719852,9.620900856
00:51.7,1.42E+12,4.3791437,3.7492533,-7.5221577,9.477164994,4.58982443,3.375528548,-7.684791486,9.606908797
00:51.7,1.42E+12,4.4210563,3.5983672,-7.5919127,9.493741294,4.61128979,3.413920712,-7.64612988,9.592087351
00:51.7,1.42E+12,4.114344,3.7745507,-7.4917707,9.343537219,4.627722616,3.440385676,-7.614692254,9.579960042
00:51.9,1.42E+12,4.276457,3.8823266,-7.552395,9.507850153,4.641880172,3.464626266,-7.599307254,9.581315541
00:51.9,1.42E+12,4.48183,3.7809875,-7.6603203,9.64692561,4.650445358,3.480367534,-7.594622,9.586936721
00:51.9,1.42E+12,4.3773475,3.7708085,-7.7079215,9.632871936,4.647325848,3.49883912,-7.59527165,9.59243637
00:51.9,1.42E+12,4.624334,3.8990917,-7.6868153,9.781334801,4.643200436,3.527276982,-7.593660996,9.598534231
00:51.9,1.42E+12,4.6634026,3.8098774,-7.329658,9.486114906,4.639033108,3.554843658,-7.591188136,9.603650751
00:51.9,1.42E+12,4.365522,3.735482,-7.0594697,9.102072322,4.631964808,3.583515032,-7.585972978,9.605522385
00:51.9,1.42E+12,4.4701543,3.5010695,-6.9807334,8.998355734,4.624058248,3.606402438,-7.580159066,9.604270705
00:51.9,1.42E+12,4.6291237,3.5813026,-7.1063223,9.206211554,4.618618556,3.62809533,-7.57084244,9.601214089
00:51.9,1.42E+12,4.815187,3.4877472,-7.6438546,9.683951648,4.613238746,3.650428886,-7.57073766,9.60517811
00:52.0,1.42E+12,5.028942,3.5052607,-7.9828997,10.06497878,4.612005306,3.67308577,-7.57612346,9.615645314
00:52.0,1.42E+12,4.8130913,3.668721,-7.8640466,9.92313411,4.607406872,3.69789219,-7.581898452,9.625731531
00:52.0,1.42E+12,4.431385,3.6712656,-7.2066135,9.222290511,4.596910704,3.72286027,-7.57248003,9.621096778
00:52.0,1.42E+12,4.3173223,3.6254609,-6.8490076,8.870859242,4.583342924,3.745415368,-7.556104088,9.6087869
00:52.0,1.42E+12,4.332441,3.596571,-6.856492,8.872251717,4.567661536,3.763078638,-7.535072822,9.590192553
00:52.0,1.42E+12,4.5354185,3.6486626,-7.282955,9.3233145,4.555620578,3.776718274,-7.522361256,9.578772082
00:52.1,1.42E+12,4.5494895,3.830235,-7.659422,9.697180015,4.546277008,3.791423694,-7.520642822,9.57805073
00:52.1,1.42E+12,4.7027707,3.8468504,-8.062833,10.09572118,4.546806908,3.807434398,-7.533291512,9.594106699
00:52.5,1.42E+12,5.146747,4.0002813,-8.216713,10.48835677,4.562979268,3.823493004,-7.546934138,9.618603937
00:52.5,1.42E+12,5.1424065,3.975433,-8.074509,10.36562144,4.582890864,3.838922918,-7.553792878,9.639113162
00:52.5,1.42E+12,4.8750625,3.9233413,-8.125403,10.2557796,4.597578326,3.852143424,-7.556654922,9.652912116
00:52.5,1.42E+12,4.4074345,3.7666173,-7.994575,9.875531084,4.600509226,3.859858382,-7.556822568,9.657171884
00:52.5,1.42E+12,4.1327558,3.662883,-8.053852,9.765291312,4.593878014,3.86081639,-7.560723456,9.657789162
00:52.5,1.42E+12,3.750002,3.4881964,-7.793094,9.325360219,4.579807274,3.855493462,-7.56426209,9.652530856
00:52.5,1.42E+12,3.942801,3.5645375,-7.5987983,9.273259563,4.566484974,3.848503,-7.566546336,9.645558
00:52.5,1.42E+12,4.338877,3.7348833,-7.6219997,9.532580255,4.563485206,3.841072456,-7.57476125,9.647514397
00:52.5,1.42E+12,4.865033,3.8398151,-7.705227,9.888541309,4.569514666,3.837324248,-7.58176669,9.654350692
00:52.5,1.42E+12,5.2129097,3.7407212,-7.779622,10.08414305,4.58489668,3.831704932,-7.58611963,9.663051823
00:52.5,1.42E+12,5.0244517,3.705694,-7.6199045,9.850899832,4.597171154,3.824013926,-7.587427908,9.666932616
00:52.5,1.42E+12,4.653523,3.5343003,-7.3384895,9.380830617,4.600012246,3.812993838,-7.582598948,9.660128536
00:52.5,1.42E+12,4.53946,3.3727863,-7.0263886,9.019563253,4.603125766,3.797372324,-7.57090527,9.646199904
00:52.5,1.42E+12,4.9296985,3.7169206,-7.7044783,9.873014328,4.610167116,3.788588588,-7.569752656,9.645187753
00:52.5,1.42E+12,4.6306205,3.5250196,-7.6064324,9.577380814,4.613154906,3.77594588,-7.568357554,9.640483263
00:52.5,1.42E+12,4.443809,3.5221756,-7.606133,9.487171264,4.613502186,3.764024672,-7.568231814,9.635802182
00:52.5,1.42E+12,4.383185,3.397934,-7.398814,9.246659657,4.611044292,3.746870342,-7.568103084,9.627600137
00:52.6,1.42E+12,4.2448726,3.404071,-7.5631723,9.317092787,4.606257244,3.732251742,-7.57538693,9.625228644
00:52.6,1.42E+12,4.6164002,3.5825002,-7.8251276,9.766170204,4.606092588,3.719109074,-7.59075397,9.631703108
00:52.6,1.42E+12,4.8086004,3.4129028,-8.082143,10.00457789,4.608733096,3.70558919,-7.60904593,9.642096871
00:52.6,1.42E+12,4.780908,3.6299515,-8.147857,10.12033611,4.609334844,3.69964954,-7.63011613,9.656545229
00:52.6,1.42E+12,4.437522,3.5136433,-7.728728,9.579693484,4.599503284,3.690302974,-7.64483951,9.659417035
00:52.6,1.42E+12,4.465065,3.4323623,-7.412735,9.309487451,4.595153336,3.679336778,-7.645111936,9.653233164
00:52.7,1.42E+12,4.546795,3.2263906,-7.0105214,8.957139687,4.590261516,3.666161176,-7.630753784,9.634607865
00:52.7,1.42E+12,4.6297226,3.310815,-7.074738,9.080074068,4.58453742,3.656009282,-7.612898912,9.613994255
00:52.7,1.42E+12,5.041217,3.2629147,-7.109915,9.306523115,4.58707016,3.643932396,-7.594047112,9.59621517
00:52.7,1.42E+12,5.4452267,3.2653098,-7.124734,9.543300083,4.596916686,3.630026312,-7.574895932,9.581614731
00:52.7,1.42E+12,5.587281,3.2958462,-7.25661,9.733380699,4.609954572,3.62022769,-7.560956924,9.574342478
00:52.8,1.42E+12,5.4660335,3.194956,-7.476203,9.796881002,4.626555062,3.612222336,-7.554355644,9.574979287
00:52.8,1.42E+12,5.517526,3.2367191,-8.087981,10.31188054,4.646694182,3.604076274,-7.565249984,9.590927674
00:52.8,1.42E+12,4.984185,3.1072385,-8.40083,10.25041345,4.658795008,3.591235978,-7.58282343,9.606392643
00:52.8,1.42E+12,4.669839,3.1515462,-8.462652,10.16642113,4.663770662,3.582299558,-7.600238216,9.61984624
00:52.8,1.42E+12,4.432732,3.2879128,-8.536149,10.16490646,4.670138422,3.5725668,-7.621125782,9.636273625
00:52.9,1.42E+12,3.849994,3.1955547,-8.360864,9.743616909,4.661609162,3.558831362,-7.637295162,9.64098896
00:52.9,1.42E+12,3.773952,3.091072,-8.168513,9.514307355,4.647451602,3.545033052,-7.647459016,9.638336595
00:52.9,1.42E+12,3.8544846,3.2078292,-7.769892,9.247618147,4.636994344,3.533773466,-7.648698426,9.630631519
00:52.9,1.42E+12,4.0881486,3.19795,-7.05932,8.762068365,4.626270636,3.519750632,-7.63614852,9.61024619
00:52.9,1.42E+12,3.7485049,3.4579592,-6.6705785,8.396748677,4.607972682,3.512712268,-7.62296693,9.588458866
00:53.0,1.42E+12,3.64507,3.6227665,-7.181017,8.830514004,4.593563642,3.510457958,-7.625397876,9.5830277
00:53.0,1.42E+12,4.111949,3.3823664,-7.453301,9.159706482,4.586399536,3.508083896,-7.634849228,9.586254714
00:53.0,1.42E+12,3.7115319,3.1452594,-7.3268137,8.794903338,4.5680477,3.499363032,-7.639259056,9.57802855
00:53.0,1.42E+12,3.7586837,3.2715967,-7.489825,8.996028382,4.546917634,3.495040022,-7.636178464,9.564270085
00:53.0,1.42E+12,4.302054,3.2967443,-8.215666,9.842426501,4.532379874,3.490869694,-7.64083379,9.559819039
00:53.1,1.42E+12,4.9243097,2.8849506,-8.567135,10.29405499,4.534604242,3.475194286,-7.654895558,9.567237457
00:53.1,1.42E+12,5.2823653,2.8834538,-7.884404,9.918745657,4.551623848,3.45943805,-7.668451368,9.58116656
00:53.1,1.42E+12,5.516778,3.013234,-7.1721854,9.537015364,4.575612962,3.447193512,-7.674914924,9.594489682
00:53.1,1.42E+12,5.6703587,3.0719118,-7.033873,9.542797246,4.602371316,3.436700328,-7.678462544,9.607900593
00:53.1,1.42E+12,5.922734,2.5171654,-7.0084257,9.514879425,4.630117626,3.414070384,-7.672971958,9.611731891
00:53.2,1.42E+12,6.120772,2.9964688,-7.31888,10.00043397,4.661543276,3.39739506,-7.666161118,9.61779697
00:53.2,1.42E+12,5.714816,2.950215,-8.313263,10.51062473,4.681784182,3.379462352,-7.671169718,9.626095041
00:53.2,1.42E+12,5.4087024,2.8250751,-8.7174225,10.64089122,4.68702329,3.355958228,-7.681183908,9.62914573
00:53.2,1.42E+12,4.8811994,2.9288094,-8.114027,9.91168332,4.681799148,3.335025756,-7.681974268,9.620066968
00:53.2,1.42E+12,4.257297,3.2495925,-8.356972,9.925895938,4.669443838,3.32155078,-7.686605648,9.613469295
00:53.3,1.42E+12,3.752247,2.7949877,-8.458611,9.66640646,4.656340088,3.302118188,-7.695886368,9.609286802
00:53.3,1.42E+12,3.4828074,2.7671456,-7.9805045,9.136492447,4.64334112,3.28420344,-7.694419418,9.596710825
00:53.3,1.42E+12,3.7209623,2.828069,-7.234007,8.61245563,4.642760326,3.271000892,-7.683237678,9.582452733
00:53.3,1.42E+12,3.518583,2.4608827,-6.730005,7.983065657,4.634275966,3.248927796,-7.665861812,9.556648855
00:53.3,1.42E+12,3.1813345,2.5836272,-6.954538,8.072274618,4.611125116,3.225902674,-7.652512578,9.527442742
00:53.4,1.42E+12,3.063679,2.5367746,-7.978259,8.9148175,4.575098036,3.199841864,-7.657973218,9.507968266
00:53.4,1.42E+12,3.7678149,2.6569748,-9.299412,10.37954757,4.54619614,3.178166936,-7.688369018,9.513876357
00:53.5,1.42E+12,4.231401,2.4263046,-8.980425,10.21957639,4.530335126,3.152579148,-7.715579428,9.521249888
00:53.5,1.42E+12,4.435277,3.1042447,-8.999885,10.50266382,4.525970206,3.143978036,-7.748807338,9.543686552
00:53.5,1.42E+12,4.569398,3.3105156,-9.144633,10.74538153,4.526568966,3.142732622,-7.791172226,9.578202917
00:53.5,1.42E+12,5.2720366,2.8957283,-8.594078,10.48988985,4.533415728,3.126308776,-7.80896422,9.590540428
00:53.5,1.42E+12,5.3287687,2.9587471,-7.839348,9.93002202,4.547378692,3.114983326,-7.813622532,9.597593252
00:53.5,1.42E+12,5.155729,3.126698,-7.6179585,9.715506863,4.561617092,3.107073774,-7.813859042,9.602159964
00:53.5,1.42E+12,5.291646,2.681823,-7.2087092,9.335908115,4.579786312,3.092751554,-7.810056946,9.603944933
00:53.5,1.42E+12,5.1400113,2.2385948,-6.8350863,8.840216489,4.597689086,3.06944203,-7.795495226,9.594407407
00:53.6,1.42E+12,4.857848,2.5764422,-7.3221736,9.157017409,4.602518042,3.04932087,-7.785436146,9.582224351
00:53.6,1.42E+12,4.8820977,2.4575894,-8.0983095,9.770222125,4.603987988,3.030214602,-7.785759476,9.577537236
00:53.6,1.42E+12,4.9735575,2.3230193,-8.153694,9.829314255,4.607840978,3.004075958,-7.785876216,9.571716799
00:53.6,1.42E+12,4.454138,2.7175987,-8.493188,9.967894984,4.608173298,2.988155066,-7.801165416,9.579480829
00:53.6,1.42E+12,4.262985,3.1867232,-9.073082,10.51898583,4.604131698,2.983242284,-7.834372356,9.603670796
00:53.7,1.42E+12,4.1185355,2.8815079,-8.770861,10.10907637,4.595566508,2.97634463,-7.869579148,9.62670953
00:53.7,1.42E+12,3.843707,2.8921359,-8.19426,9.501811959,4.579846196,2.967971048,-7.891969588,9.635144288
00:53.7,1.42E+12,3.8634658,2.9027636,-7.971972,9.322271294,4.556291172,2.960768026,-7.909210728,9.635459251
00:53.7,1.42E+12,4.1037164,2.6586213,-7.9462256,9.330126301,4.529460966,2.948634256,-7.92564056,9.631195776
00:53.7,1.42E+12,4.562063,2.6298811,-7.8713813,9.470339856,4.508956606,2.935314954,-7.937935986,9.625934959
00:53.8,1.42E+12,4.6375065,2.6355693,-7.8471317,9.48842284,4.492386066,2.92412722,-7.94535456,9.619765796
00:53.8,1.42E+12,4.8451247,2.5556355,-7.7273808,9.472007189,4.47893804,2.910505548,-7.938142556,9.602968329
00:53.8,1.42E+12,4.936884,2.787653,-7.76136,9.611583737,4.47799202,2.904113838,-7.925353156,9.590191734
00:53.8,1.42E+12,4.935686,2.7451415,-7.780221,9.613981327,4.48330896,2.895985744,-7.911704536,9.579142938
00:53.8,1.42E+12,4.6861553,2.8104057,-7.913444,9.616705654,4.488377426,2.886435602,-7.899250436,9.568178922
00:53.9,1.42E+12,4.531377,2.8186386,-7.3805523,9.107724926,4.502005086,2.87889728,-7.879644202,9.555461083
00:53.9,1.42E+12,4.4792852,2.6997857,-7.142547,8.852616358,4.51611175,2.871071554,-7.859124882,9.542227263
00:53.9,1.42E+12,4.321513,2.7080185,-7.5223074,9.088121226,4.525452318,2.86107534,-7.85417319,9.539037324
00:53.9,1.42E+12,4.2978625,2.5304878,-7.5967026,9.087622405,4.529646596,2.847726096,-7.864920842,9.545548405
00:53.9,1.42E+12,4.3768983,2.7152038,-7.65074,9.222981782,4.542214464,2.832870988,-7.884524072,9.562073067
00:54.0,1.42E+12,4.1212296,2.7204428,-7.835306,9.26160691,4.551737656,2.814824514,-7.897609852,9.570694925
00:54.0,1.42E+12,4.283792,2.9624894,-8.06463,9.60028512,4.555174516,2.806426974,-7.909836432,9.579506498
00:54.0,1.42E+12,4.2052054,3.0500574,-8.432864,9.904534206,4.565047986,2.804522934,-7.931957438,9.601699115
00:54.0,1.42E+12,4.3742037,2.8225305,-8.587941,10.04256277,4.577358386,2.79554161,-7.953919758,9.622629803
00:54.0,1.42E+12,4.2357416,2.9749136,-8.314909,9.794351919,4.576032138,2.789104996,-7.955904618,9.621668311
00:54.1,1.42E+12,4.263135,2.7466383,-8.20384,9.644756748,4.562808644,2.78633875,-7.948638718,9.608682347
00:54.1,1.42E+12,4.193829,2.545307,-8.029003,9.409127408,4.541037918,2.779575814,-7.951530698,9.598489982
00:54.1,1.42E+12,4.219126,2.5129743,-7.6881623,9.122713609,4.515084878,2.76957062,-7.961850236,9.590203947
00:54.1,1.42E+12,4.314927,2.6108706,-7.43908,8.987499739,4.487976244,2.760349796,-7.969954376,9.579097996
00:54.1,1.42E+12,4.4734473,2.8810587,-7.6779838,9.3415023,4.45899051,2.767627662,-7.983345538,9.575630454
00:54.2,1.42E+12,4.628974,2.7033782,-8.094717,9.708763943,4.42915455,2.76176585,-7.998862278,9.569797053
00:54.2,1.42E+12,4.6687913,2.735262,-8.007448,9.664289621,4.408234056,2.75746679,-7.992745978,9.552870351
00:54.2,1.42E+12,4.513564,2.9096494,-7.923473,9.571820307,4.390331288,2.759158276,-7.976866988,9.531488933
00:54.2,1.42E+12,4.2984614,2.5029452,-7.7237883,9.186860769,4.378676528,2.750640992,-7.969062214,9.516992482
00:54.2,1.42E+12,4.0034246,2.4954607,-7.688462,9.020375855,4.37359908,2.735558356,-7.955692014,9.49888208
00:54.3,1.42E+12,4.126619,2.532883,-8.026908,9.374205711,4.38108652,2.730316262,-7.947057954,9.493038065
00:54.3,1.42E+12,4.2132883,2.4586372,-8.127499,9.479078815,4.395696138,2.724146094,-7.949997844,9.499889793
00:54.3,1.42E+12,4.475094,2.527494,-7.6718464,9.234279583,4.410778772,2.718134594,-7.958754632,9.512326272
00:54.3,1.42E+12,4.6180468,2.5715024,-7.0840187,8.838682129,4.432768048,2.720346988,-7.965834906,9.529438601
00:54.3,1.42E+12,4.691843,2.6325755,-7.1539235,8.951115346,4.462978218,2.721325954,-7.969822616,9.547015416
00:54.4,1.42E+12,5.1135163,2.7536738,-7.7028317,9.646988367,4.503974964,2.725663938,-7.96431407,9.561658833
00:54.4,1.42E+12,5.1961446,2.7135572,-8.152796,10.04148366,4.532541558,2.726795586,-7.94138175,9.554897555
00:54.4,1.42E+12,5.073699,2.8023226,-8.375234,10.18528242,4.549387518,2.734315946,-7.92927793,9.554211675
00:54.4,1.42E+12,5.1856666,2.8541148,-8.722661,10.54143844,4.56439531,2.729313348,-7.92373345,9.554987168
00:54.4,1.42E+12,4.798571,2.6532326,-8.913514,10.46502072,4.56897877,2.716167688,-7.91911107,9.549379952
00:54.5,1.42E+12,4.537065,2.6077273,-8.757988,10.20233083,4.554279338,2.710407668,-7.92238927,9.543628771
00:54.5,1.42E+12,4.197272,2.5399182,-8.467442,9.786002796,4.531649404,2.70203109,-7.93495115,9.540748387
00:54.5,1.42E+12,4.1242237,2.7006838,-7.832762,9.255002683,4.511019298,2.693510806,-7.93924722,9.531538303
00:54.5,1.42E+12,4.2472677,2.753075,-7.835905,9.328457109,4.490131732,2.694935846,-7.951791136,9.531389283
00:54.5,1.42E+12,4.2502613,2.7339149,-8.04487,9.500470784,4.472336732,2.704842248,-7.97598681,9.544594369
00:54.6,1.42E+12,4.450545,2.8562105,-8.180788,9.741179678,4.464190672,2.710437614,-7.993159098,9.556277614
00:54.6,1.42E+12,4.295168,2.8225305,-8.533305,9.961548112,4.452452078,2.717736436,-8.001859008,9.560104134
00:54.6,1.42E+12,3.9577699,2.8660898,-8.446036,9.757762932,4.432136326,2.728597846,-8.007705848,9.558673108
00:54.6,1.42E+12,4.026477,2.8128006,-8.236322,9.589648812,4.423583106,2.730501884,-8.002568528,9.551108184
00:54.6,1.42E+12,4.1535625,3.0389805,-8.08349,9.582812453,4.421394656,2.72754703,-7.982776688,9.532384717
00:54.7,1.42E+12,4.3554926,2.8514204,-8.055947,9.591621143,4.426133798,2.72694528,-7.968478408,9.522035612
00:54.7,1.42E+12,4.5794272,2.7274783,-7.309749,9.046696734,4.440848202,2.723652128,-7.950788188,9.512933308
00:54.7,1.42E+12,4.690496,2.6830206,-7.246431,9.039364718,4.457388806,2.719257268,-7.936277368,9.507275176
00:54.8,1.42E+12,4.94826,2.8521688,-7.5754466,9.487230106,4.474279678,2.723128218,-7.928861788,9.510417252
00:54.8,1.42E+12,4.9235616,2.6449997,-7.897577,9.675184996,4.48150965,2.72343059,-7.929385702,9.514514155
00:54.8,1.42E+12,4.9159274,2.5247996,-7.889344,9.632377898,4.487078068,2.721215196,-7.930229948,9.517393256
00:54.8,1.42E+12,4.8201265,2.8436365,-7.9800553,9.746854396,4.486578104,2.726975216,-7.935283438,9.5228902
00:54.8,1.42E+12,5.0504975,2.9957204,-8.407117,10.25482725,4.488850374,2.731136564,-7.948198578,9.53575507
00:54.8,1.42E+12,5.2058744,2.8056157,-8.488399,10.34531417,4.494254142,2.732346048,-7.962362138,9.550381727
00:54.8,1.42E+12,5.1534834,2.8928843,-8.408914,10.27798645,4.503600704,2.73399562,-7.972271538,9.563607343
00:54.9,1.42E+12,5.129234,2.8168423,-7.819589,9.766760676,4.515557844,2.733959694,-7.981052272,9.576788058
00:54.9,1.42E+12,4.803511,2.719395,-7.2778654,9.134339159,4.52204236,2.73435188,-7.98375864,9.582422514
00:54.9,1.42E+12,4.4655137,2.6836195,-7.3486686,9.008082838,4.524922374,2.7338639,-7.980285864,9.580821747
00:54.9,1.42E+12,4.4334807,2.3743625,-7.4684196,9.003923574,4.527634738,2.730741394,-7.977720204,9.57914777
00:54.9,1.42E+12,4.3328896,2.6137147,-7.720645,9.231131893,4.526754564,2.728711612,-7.979118304,9.579310772
00:55.0,1.42E+12,4.307143,2.8087592,-8.143516,9.631067537,4.530472832,2.73047794,-7.985282504,9.586699985
00:55.0,1.42E+12,4.506379,2.9475205,-7.9137435,9.571972888,4.534924572,2.730178562,-7.982264774,9.58613374
00:55.0,1.42E+12,4.4721003,2.9556038,-7.423662,9.156747916,4.54026247,2.72828949,-7.962080734,9.571178014
00:55.1,1.42E+12,4.839885,2.9356952,-7.1153035,9.092322971,4.549576096,2.730552784,-7.932627984,9.552173218
00:55.1,1.42E+12,4.6575646,2.6931994,-7.3982153,9.147667497,4.558012556,2.7249185,-7.91429411,9.53923953
00:55.1,1.42E+12,4.4518924,2.599644,-7.5092845,9.108613976,4.561787704,2.721978614,-7.900403,9.528516674
00:55.1,1.42E+12,4.343368,2.4129822,-7.7540255,9.209356119,4.564778484,2.719332118,-7.89490345,9.524521249
00:55.1,1.42E+12,4.5074267,2.4336393,-7.9227247,9.434461424,4.570544498,2.717745418,-7.899594698,9.530756205
00:55.1,1.42E+12,4.781058,2.5732987,-7.8906913,9.578277037,4.579867118,2.71699398,-7.908626924,9.542571751
00:55.1,1.42E+12,4.814139,2.7099645,-7.620952,9.41269097,4.586680952,2.713572096,-7.907486288,9.543995524
00:55.2,1.42E+12,4.9262557,2.829566,-7.426806,9.350501929,4.592626586,2.716095852,-7.894128068,9.536830284
00:55.2,1.42E+12,5.2894006,3.002157,-7.3929763,9.573233724,4.605038772,2.721433752,-7.881838634,9.535009166
00:55.2,1.42E+12,5.359455,3.1928604,-7.826175,10.00835304,4.621956592,2.727097972,-7.879892674,9.543739821
00:55.2,1.42E+12,5.038672,2.5536895,-8.316556,10.05358888,4.636760804,2.728112858,-7.891748028,9.561074383
00:55.2,1.42E+12,4.7743216,2.8125014,-8.368648,10.03686107,4.652178744,2.734453672,-7.905351748,9.581404087
00:55.3,1.42E+12,4.1749682,2.752027,-8.371042,9.750813107,4.653145728,2.738836552,-7.912234428,9.588936235
00:55.3,1.42E+12,3.9363642,2.5369244,-8.283026,9.515222974,4.647607246,2.740402296,-7.915344968,9.589659118
00:55.3,1.42E+12,3.9109173,2.6870623,-7.9670324,9.273035274,4.636323712,2.743593662,-7.921248688,9.590434232
00:55.3,1.42E+12,4.1324563,2.5483007,-7.843539,9.224539857,4.626611902,2.743129628,-7.936439094,9.598151387
00:55.3,1.42E+12,4.5512857,2.8168423,-7.634424,9.323799219,4.623800756,2.746814964,-7.946049104,9.605605064
00:55.4,1.42E+12,4.8238688,2.6699977,-7.50644,9.313712439,4.618007806,2.745141442,-7.94212127,9.598939546
00:55.4,1.42E+12,5.1287847,2.8262727,-7.5567355,9.56015174,4.616660608,2.747395752,-7.93020006,9.589312907
00:55.4,1.42E+12,5.0440607,2.7343638,-7.664961,9.574493243,4.616067842,2.746036576,-7.9159946,9.577097124
00:55.4,1.42E+12,5.021158,2.8219318,-7.4687185,9.43170625,4.61277767,2.745392916,-7.89091575,9.55490248
00:55.5,1.42E+12,4.8562016,2.6256897,-7.185358,9.061253223,4.613930282,2.744842058,-7.85635263,9.52682713
00:55.5,1.42E+12,4.742887,2.6358688,-6.868916,8.753558616,4.618046722,2.745404888,-7.81857119,9.497851686
00:55.5,1.42E+12,5.0115786,2.4535477,-6.982829,8.938440425,4.634332854,2.743677478,-7.78887893,9.480900438
00:55.5,1.42E+12,5.3624487,2.6529331,-7.541168,9.626168755,4.659097354,2.742722464,-7.78304705,9.48832376
00:55.5,1.42E+12,5.5395303,2.3715184,-8.057445,10.06145692,4.684942606,2.735091332,-7.78747785,9.502983756
00:55.5,1.42E+12,5.3639455,2.6921515,-8.046368,10.03810884,4.70721629,2.734256064,-7.78750781,9.513736517
00:55.6,1.42E+12,4.898863,2.8738737,-8.167914,9.948508825,4.71618265,2.734609328,-7.78725033,9.5178831
00:55.6,1.42E+12,4.400399,2.7641518,-8.66548,10.10418676,4.71828727,2.733441754,-7.78989383,9.520735873
00:55.6,1.42E+12,4.240532,2.6915529,-8.878038,10.20030036,4.723942512,2.729951016,-7.79853387,9.529586621
00:55.6,1.42E+12,4.025579,2.7366092,-8.588091,9.871657572,4.723924552,2.728427188,-7.80556925,9.535226797
00:55.6,1.42E+12,4.0856037,2.8449838,-8.244555,9.63113584,4.722565376,2.724547254,-7.80879055,9.536193264
00:55.7,1.42E+12,4.340973,2.8087592,-7.7713895,9.334220353,4.722274984,2.72369403,-7.8030994,9.531045249
00:55.7,1.42E+12,4.676575,2.805466,-7.4905734,9.265510405,4.72421794,2.725253784,-7.806715888,9.535421522
00:55.7,1.42E+12,4.559818,2.738705,-7.32861,9.055438686,4.72160438,2.726367472,-7.808359468,9.535743001
00:55.7,1.42E+12,4.6821136,2.6673033,-7.514673,9.246999781,4.716281452,2.722670162,-7.807143996,9.530938395
00:55.7,1.42E+12,4.8771577,2.556384,-7.5232053,9.323110231,4.715353374,2.720897848,-7.799656562,9.5238969
00:55.8,1.42E+12,4.8009663,2.6195526,-7.590715,9.355762259,4.713054152,2.722792908,-7.793683982,9.518364587
00:55.8,1.42E+12,4.862189,2.5143213,-7.7526784,9.490348563,4.713895402,2.716206604,-7.789136444,9.51323447
00:55.8,1.42E+12,4.9620314,2.5845253,-7.5501494,9.397142257,4.71212608,2.707982702,-7.771997092,9.49608077
00:55.8,1.42E+12,5.0019984,2.4327412,-7.156917,9.06419763,4.70804856,2.700525212,-7.745367452,9.470458439
00:55.8,1.42E+12,5.300777,2.743495,-7.056027,9.241889344,4.710994432,2.697537426,-7.718309712,9.449736497
00:55.9,1.42E+12,5.464237,2.781366,-7.7113643,9.851853744,4.717694492,2.6968279,-7.716145218,9.451438359
00:55.9,1.42E+12,5.408104,2.4122338,-8.287815,10.18598735,4.729786352,2.690684676,-7.73634421,9.472471323
00:55.9,1.42E+12,5.1891093,2.610272,-8.295898,10.12730462,4.744258264,2.689217726,-7.755288798,9.494855758
00:55.9,1.42E+12,4.7023215,2.627037,-8.319699,9.911132243,4.74963508,2.694271216,-7.772314386,9.512999932
00:55.9,1.42E+12,4.382886,2.8135493,-8.225844,9.736028906,4.750635008,2.698267908,-7.782418366,9.523097872
00:56.0,1.42E+12,4.2507105,2.6725423,-7.886949,9.349598207,4.749506358,2.69554357,-7.777287026,9.517468485
00:56.0,1.42E+12,4.21269,2.6937983,-7.579189,9.080055739,4.743632578,2.690469126,-7.770595936,9.507630142
00:56.0,1.42E+12,4.376,2.7840605,-7.4477625,9.075766366,4.741710572,2.68703826,-7.771077946,9.506010511
00:56.0,1.42E+12,4.649032,2.6253905,-7.263795,9.014926046,4.737893512,2.680832166,-7.774047776,9.504462573
00:56.1,1.42E+12,4.7969246,2.5709038,-7.475305,9.246632728,4.740680712,2.678386254,-7.77558957,9.506441877
00:56.1,1.42E+12,5.140909,2.7053242,-7.753726,9.688549492,4.754461044,2.680499858,-7.7804784,9.518040588
00:56.1,1.42E+12,4.961732,2.6069787,-7.9040136,9.689610589,4.766828324,2.684379788,-7.783478162,9.527645677
00:56.1,1.42E+12,4.6538224,2.6869125,-7.924521,9.574737322,4.769756238,2.689445252,-7.783514088,9.530451195
00:56.1,1.42E+12,4.405788,2.6752367,-8.01119,9.526123268,4.762250838,2.691484012,-7.785924062,9.52940812
00:56.1,1.42E+12,4.511019,2.5508454,-8.207283,9.706472012,4.756188438,2.68830163,-7.797650682,9.53528374
00:56.2,1.42E+12,4.581822,2.68811,-8.231083,9.796415445,4.749299764,2.68547251,-7.813736222,9.544202011
00:56.2,1.42E+12,4.77507,2.6256897,-8.06957,9.737222391,4.739013152,2.677943164,-7.827268096,9.547481784
00:56.2,1.42E+12,4.7618976,2.631378,-7.5916133,9.339829304,4.727062004,2.666713516,-7.822576862,9.534111309
00:56.2,1.42E+12,4.849615,2.6807754,-7.629634,9.429561886,4.723280864,2.669255234,-7.808838422,9.52163077
00:56.3,1.42E+12,5.057533,2.713108,-7.6472974,9.561420009,4.728945092,2.667267366,-7.79441141,9.512121948
00:56.3,1.42E+12,4.8779063,2.631827,-7.73262,9.513879088,4.743003854,2.664863366,-7.78164297,9.507383268
00:56.3,1.42E+12,4.8273115,2.6310787,-7.79983,9.542686177,4.7608228,2.666746452,-7.77197905,9.507932532
00:56.3,1.42E+12,4.6186457,2.639012,-7.686366,9.347539501,4.774977368,2.665785446,-7.766365722,9.509422617
00:56.3,1.42E+12,4.5982876,2.4948618,-7.7423496,9.344119091,4.784293994,2.664716668,-7.764341934,9.511814201
00:56.4,1.42E+12,4.620292,2.547702,-7.5303903,9.194817112,4.78567412,2.659333862,-7.76226126,9.509234559
00:56.4,1.42E+12,4.805008,2.5171654,-7.358398,9.14167625,4.785296904,2.656277216,-7.75930042,9.505793835
00:56.4,1.42E+12,4.8442264,2.5435107,-7.307803,9.129072285,4.779605738,2.650621976,-7.75432177,9.497172246
00:56.4,1.42E+12,5.1995873,2.7093658,-7.4332423,9.467283783,4.78271627,2.650122016,-7.749687396,9.495028057
00:56.4,1.42E+12,5.151687,2.7548711,-7.9171863,9.83925976,4.78532685,2.648780802,-7.758656752,9.503179127
00:56.4,1.42E+12,4.968618,2.40445,-8.322244,9.986405251,4.787575178,2.644356008,-7.781394472,9.521682168
00:56.5,1.42E+12,4.7216315,2.3273602,-8.475525,9.977220733,4.787150068,2.638185836,-7.813526652,9.54615541
00:56.5,1.42E+12,4.363426,2.3188279,-8.40577,9.750559911,4.774187016,2.63549144,-7.841985472,9.5623978
00:56.5,1.42E+12,4.506678,2.4644752,-8.511151,9.940999746,4.757071602,2.631722282,-7.861385132,9.56869442
00:56.5,1.42E+12,4.5185037,2.4999514,-8.218809,9.70646455,4.73665107,2.634290942,-7.864612412,9.561594572
00:56.5,1.42E+12,4.5515847,2.5122259,-7.9007206,9.457779245,4.720403854,2.63069243,-7.861699464,9.54998798
00:56.6,1.42E+12,4.7840514,2.6909542,-7.5016503,9.295328909,4.718107622,2.62703404,-7.84837419,9.536924382
00:56.6,1.42E+12,4.902156,2.8577073,-7.3429804,9.279923794,4.728142762,2.62890515,-7.821924198,9.520439123
00:56.6,1.42E+12,4.792135,2.5345294,-7.3413334,9.125983412,4.739174822,2.62576468,-7.791190106,9.498952784
00:56.6,1.42E+12,4.6550198,2.4004083,-7.4329433,9.092844189,4.751763638,2.619040662,-7.768087152,9.483376516
00:56.6,1.42E+12,4.5827203,2.5056396,-7.7094183,9.31207204,4.76170597,2.612253778,-7.757384418,9.47699524
00:56.7,1.42E+12,4.8568,2.2763164,-7.979756,9.614916974,4.77202251,2.601604922,-7.761551748,9.482609172
00:56.7,1.42E+12,4.689149,2.4831862,-7.864945,9.487449178,4.77227399,2.595159326,-7.76903918,9.487047948
00:56.7,1.42E+12,4.8442264,2.6402097,-7.9092526,9.643314439,4.777962158,2.59318942,-7.780652032,9.498805463
00:56.7,1.42E+12,4.927304,2.577041,-7.911049,9.669754976,4.782865966,2.591384174,-7.788579552,9.507260567
00:56.7,1.42E+12,4.8765593,2.738106,-7.6796303,9.500251398,4.782853998,2.595018614,-7.791708052,9.51080339
00:56.8,1.42E+12,4.8773074,2.6093738,-7.58353,9.386526853,4.78438082,2.594815038,-7.791564352,9.511418682
00:56.8,1.42E+12,4.731211,2.771786,-7.4440203,9.245571555,4.78176126,2.599964332,-7.78539119,9.506523142
00:56.8,1.42E+12,4.631369,2.6797276,-7.382947,9.118027486,4.775148012,2.601868378,-7.782047142,9.500940847
00:56.8,1.42E+12,4.592899,2.43813,-7.544611,9.162988282,4.766966024,2.601976154,-7.789801022,9.50291666
00:56.8,1.42E+12,4.8415318,2.663112,-7.82872,9.582351096,4.75778112,2.600368494,-7.805254882,9.509725895
00:56.9,1.42E+12,5.014722,2.3050566,-7.8574605,9.602104362,4.74879082,2.590842306,-7.808176806,9.504730907
00:56.9,1.42E+12,5.2783237,2.3369403,-7.89608,9.781107832,4.746195214,2.589336436,-7.800342106,9.496633317
00:56.9,1.42E+12,5.3371515,2.1896467,-8.002957,9.865447762,4.749156058,2.58092393,-7.794483286,9.491396179
00:56.9,1.42E+12,5.382956,2.2234762,-8.027806,9.917949934,4.762768748,2.572852714,-7.788645426,9.491532533
00:56.9,1.42E+12,5.426366,2.3373895,-7.930209,9.889239224,4.783638348,2.563329518,-7.782732726,9.49459674
00:57.0,1.42E+12,5.300777,2.3555017,-7.7746825,9.700119228,4.804639678,2.556988706,-7.780487396,9.50160716
00:57.0,1.42E+12,4.7036686,2.422263,-7.240593,8.967610793,4.81445925,2.551558,-7.773715476,9.499358261
00:57.0,1.42E+12,4.658313,2.756518,-7.2763686,9.068837384,4.82010551,2.55100715,-7.770287598,9.499219682
00:57.1,1.42E+12,4.591402,2.8370504,-7.997719,9.64848882,4.81895291,2.555240348,-7.784966078,9.511890937
00:57.1,1.42E+12,4.324058,2.5191114,-8.130642,9.547289624,4.809495578,2.5542045,-7.798072818,9.517904075
00:57.1,1.42E+12,4.2065525,2.4158263,-8.057594,9.405111467,4.790808448,2.548414542,-7.804150178,9.512235314
00:57.1,1.42E+12,4.0213876,2.469864,-7.956255,9.250609711,4.77200156,2.545672248,-7.805195006,9.503455297
00:57.1,1.42E+12,3.9145098,2.4230113,-8.1303425,9.343277792,4.757215308,2.540394224,-7.809311436,9.498826106
00:57.1,1.42E+12,4.064049,2.581831,-7.733668,9.109992663,4.750380528,2.53852611,-7.803760996,9.490503494
00:57.1,1.42E+12,4.2766066,2.590513,-7.6219997,9.115645948,4.74569228,2.539319462,-7.79205533,9.478686973
00:57.2,1.42E+12,4.6506786,2.8316615,-7.441775,9.221015857,4.747069412,2.542190492,-7.77626917,9.467178981
00:57.2,1.42E+12,4.898863,2.631378,-7.41513,9.268611643,4.749545272,2.542304258,-7.76318037,9.457806766
00:57.2,1.42E+12,5.0130754,2.4983048,-7.488927,9.351816906,4.754568828,2.539642794,-7.761126644,9.458046518
00:57.2,1.42E+12,5.2346144,2.34188,-7.7192974,9.616295659,4.762268816,2.532864886,-7.762919912,9.461781194
00:57.2,1.42E+12,5.1504893,2.321672,-7.76615,9.603686101,4.764127942,2.525036166,-7.765296964,9.462626515
00:57.3,1.42E+12,5.186714,2.430945,-7.824828,9.697392894,4.770304096,2.521018526,-7.767141124,9.466296792
00:57.3,1.42E+12,5.1341734,2.5825796,-7.8194394,9.70428186,4.776441334,2.520048544,-7.767533312,9.469528705
00:57.3,1.42E+12,5.2486854,2.6402097,-7.6458006,9.642493065,4.789042128,2.520072498,-7.766722004,9.475427777
00:57.4,1.42E+12,5.178481,2.7768755,-7.7347155,9.713574361,4.800645996,2.525712772,-7.766569322,9.482816882
00:57.4,1.42E+12,5.1036367,2.274969,-7.3875875,9.262777153,4.81031289,2.520258112,-7.763713266,9.484176083
00:57.4,1.42E+12,4.963678,2.427502,-7.299421,9.154911916,4.81348629,2.518464844,-7.762533726,9.484440796
00:57.4,1.42E+12,4.4577303,2.4828868,-8.158335,9.622604443,4.805756368,2.517252366,-7.779544366,9.494311439
00:57.4,1.42E+12,4.3504033,2.205813,-8.808882,10.06916193,4.788772688,2.50718131,-7.80705716,9.506349002
00:57.4,1.42E+12,4.157754,2.078877,-8.81936,9.969441244,4.768894028,2.493661428,-7.825100634,9.508952632
00:57.4,1.42E+12,3.6788998,2.414479,-8.48765,9.560555167,4.743099664,2.493862008,-7.828408754,9.50043563
00:57.5,1.42E+12,3.487298,2.597249,-8.524174,9.569142704,4.718412994,2.499259784,-7.829381734,9.49227407
00:57.5,1.42E+12,3.7064424,2.6378145,-8.161328,9.343610401,4.705273322,2.505639516,-7.824492894,9.484135079
00:57.5,1.42E+12,4.0511756,2.4999514,-7.641759,9.00323616,4.696163274,2.50634904,-7.807105054,9.465379808
00:57.5,1.42E+12,4.5411067,2.5397685,-7.56407,9.180807647,4.696615334,2.507145382,-7.794010274,9.45486667
00:57.5,1.42E+12,5.1326766,2.4782465,-7.382199,9.326464328,4.708237172,2.506465794,-7.783639842,9.452240371
00:57.6,1.42E+12,5.332361,2.365531,-7.2028713,9.268827634,4.719203364,2.49995733,-7.777664262,9.451710346
00:57.6,1.42E+12,5.449717,2.4622297,-7.4606357,9.561541483,4.730154584,2.492047778,-7.780017368,9.4573427
00:57.6,1.42E+12,5.999674,2.360142,-8.427026,10.61042532,4.754305364,2.48856003,-7.80173122,9.487031538
00:57.6,1.42E+12,6.315367,2.365531,-9.935888,12.00839155,4.787512308,2.487862484,-7.851790114,9.545342485
00:57.7,1.42E+12,5.071753,1.7019608,-10.116862,11.44422325,4.797292962,2.471788908,-7.899938988,9.587985509
00:57.7,1.42E+12,3.9288797,1.9598744,-8.572972,9.631876882,4.778734556,2.465460068,-7.911803308,9.588324707
00:57.7,1.42E+12,3.8766384,2.632875,-7.8487782,9.141316934,4.762484344,2.468453844,-7.911479972,9.581402062
00:57.7,1.42E+12,3.631598,2.3593936,-7.553742,8.707138473,4.738231776,2.462837522,-7.90436976,9.562678543
00:57.7,1.42E+12,2.6449997,1.6223264,-6.4693966,7.175030225,4.69258569,2.44374323,-7.875536712,9.512784048
00:57.7,1.42E+12,3.0624816,2.0299287,-5.745951,6.820216783,4.656304136,2.429579684,-7.836863126,9.459183356
00:57.8,1.42E+12,4.5084743,2.8798614,-6.1776533,8.172107592,4.648927474,2.434989436,-7.808745592,9.434894971
00:57.8,1.42E+12,5.7770863,2.6951454,-6.8526,9.359308821,4.66984498,2.433456624,-7.796917186,9.437169716
00:57.8,1.42E+12,6.2367806,2.618954,-7.315737,9.963752313,4.701953212,2.432241152,-7.795572986,9.454084212
00:57.8,1.42E+12,6.8485584,2.7295737,-7.5477543,10.55092033,4.7470664,2.438070026,-7.795635852,9.481842853
00:57.9,1.42E+12,7.344477,2.603536,-7.5058417,10.8193069,4.797125304,2.436878506,-7.789178286,9.506581969
00:57.9,1.42E+12,6.54005,2.1615052,-7.523355,10.20025633,4.827631864,2.434007478,-7.782496176,9.518545009
00:57.9,1.42E+12,5.1061816,2.0619621,-7.563322,9.355673033,4.824189022,2.428507914,-7.775841016,9.510036313
00:57.9,1.42E+12,4.5205994,2.0718415,-8.043224,9.456309981,4.80785798,2.42615181,-7.776646356,9.501853557
00:57.9,1.42E+12,4.395759,2.085014,-8.428523,9.731905288,4.78811404,2.423382566,-7.784660696,9.498132664
00:57.9,1.42E+12,4.1597,1.7543519,-9.002279,10.07084316,4.76278072,2.411721814,-7.806102096,9.501764743
00:58.0,1.42E+12,4.488566,2.7677445,-10.196646,11.47951323,4.7465365,2.41996667,-7.854541366,9.537352623
00:58.1,1.42E+12,5.1910553,3.0826895,-11.447595,12.94208101,4.756284234,2.4331752,-7.938681406,9.616842027
00:58.1,1.42E+12,4.0863523,2.6012907,-11.127111,12.13579777,4.74484502,2.430070654,-8.015696254,9.678181235
00:58.1,1.42E+12,2.6981392,2.4384294,-9.558823,10.227267,4.706979764,2.422098234,-8.046918334,9.689756799
00:58.1,1.42E+12,2.777175,2.5908124,-8.271649,9.101933149,4.676042104,2.423532254,-8.049738474,9.680849669
00:58.1,1.42E+12,2.993026,2.467469,-8.033195,8.920696711,4.651771574,2.424565108,-8.049250494,9.671161374
00:58.1,1.42E+12,3.0650263,1.7304016,-7.9324546,8.678278164,4.632644348,2.40977586,-8.048774486,9.659714743
00:58.1,1.42E+12,3.2000456,1.6808547,-7.129075,7.993076674,4.618355064,2.394932728,-8.028749136,9.632710721
00:58.2,1.42E+12,3.6805463,2.1772225,-6.250103,7.573011712,4.61068501,2.386840558,-7.999077836,9.601971102
00:58.2,1.42E+12,5.0019984,2.581831,-5.9146504,8.165104326,4.625192846,2.386666918,-7.96493085,9.582960269
00:58.2,1.42E+12,5.8892035,2.2294638,-6.2686644,8.885346367,4.649963344,2.374622964,-7.941468638,9.57624688
00:58.2,1.42E+12,6.1099944,1.8488054,-6.7994604,9.326455635,4.674185972,2.358971512,-7.929155246,9.577403759
00:58.2,1.42E+12,6.3514423,1.9113753,-7.2341566,9.814641947,4.70095331,2.347232922,-7.924059838,9.58666026
00:58.2,1.42E+12,6.431825,2.2315595,-7.297325,9.979939017,4.724897522,2.345026512,-7.91562039,9.593933127
00:58.2,1.42E+12,6.4155087,2.6003923,-6.8596354,9.745531787,4.75019791,2.350600918,-7.897490098,9.596770041
00:58.3,1.42E+12,6.1909757,2.5505462,-6.392008,9.256955888,4.770283144,2.352992942,-7.868833698,9.587961301
00:58.3,1.42E+12,6.3200073,2.5915608,-6.51116,9.436836557,4.793999822,2.353172566,-7.84266811,9.582612395
00:58.4,1.42E+12,6.197712,2.461631,-6.8668203,9.572067815,4.812980354,2.349600992,-7.827088504,9.58120389
00:58.4,1.42E+12,6.0092535,2.2333558,-7.33834,9.744241362,4.829595804,2.338730598,-7.819160994,9.58181723
00:58.4,1.42E+12,5.5462666,2.12064,-7.3658824,9.461205565,4.838448402,2.335644018,-7.818726892,9.585785798
00:58.4,1.42E+12,5.2006354,2.1031265,-7.3575,9.25216493,4.84318755,2.329156508,-7.819888472,9.587730858
00:58.4,1.42E+12,4.478836,2.2600002,-7.398964,8.939364692,4.843609664,2.324698776,-7.804701052,9.574066063
00:58.4,1.42E+12,4.1598496,2.2945783,-7.692803,9.041496351,4.83979859,2.326474082,-7.782379472,9.553512752
00:58.4,1.42E+12,4.1150928,2.4749534,-7.9137435,9.25671212,4.838945366,2.33439561,-7.764267142,9.539258169
00:58.4,1.42E+12,4.273014,3.113226,-8.623867,10.11542915,4.85082765,2.34837055,-7.766991482,9.550355649
00:58.5,1.42E+12,3.6332445,2.9702733,-9.519903,10.61374308,4.85374658,2.355831036,-7.786906062,9.571247657
00:58.5,1.42E+12,3.0614338,2.5735981,-9.711505,10.50281455,4.840846408,2.354546708,-7.817909602,9.59443174
00:58.5,1.42E+12,2.6041346,2.5727,-9.415121,10.10172291,4.811905588,2.35600168,-7.853376842,9.616401475
00:58.5,1.42E+12,2.142345,2.3363416,-8.680149,9.240839834,4.763930354,2.351933142,-7.875698422,9.617602118
00:58.5,1.42E+12,2.430945,1.9232007,-7.8622503,8.451223243,4.709895722,2.340832226,-7.885299448,9.600097297
00:58.6,1.42E+12,3.3259337,1.991309,-7.4265065,8.377359089,4.669767176,2.333347786,-7.889772152,9.582267926
00:58.6,1.42E+12,3.990851,1.920656,-7.6901083,8.874321204,4.640589856,2.322516312,-7.894361604,9.56852352
00:58.6,1.42E+12,4.761149,1.8407222,-7.6678047,9.211515995,4.615819356,2.312127916,-7.879177178,9.540545334
00:58.7,1.42E+12,5.4208274,1.7751585,-6.8814898,8.938202239,4.597928564,2.300320466,-7.818089214,9.479141547
00:58.7,1.42E+12,5.959108,1.9862196,-6.727909,9.204390038,4.615675664,2.306005642,-7.750310154,9.434344883
00:58.7,1.42E+12,6.5768733,1.9639161,-7.647597,10.27608723,4.668635536,2.306086476,-7.731802654,9.44722909
00:58.7,1.42E+12,7.001091,1.8218614,-8.111482,10.86878992,4.731124588,2.289866204,-7.73705673,9.48177855
00:58.7,1.42E+12,6.841822,1.7007632,-7.580237,10.35196197,4.795329068,2.276693596,-7.73758663,9.51467502
00:58.7,1.42E+12,6.6105533,2.0573218,-6.7529073,9.671284554,4.87464014,2.285393504,-7.743256844,9.564600106
00:58.7,1.42E+12,6.5840583,2.1767733,-6.4458957,9.467720796,4.945071674,2.288330396,-7.757255738,9.617550187
00:58.8,1.42E+12,6.328989,1.8976039,-6.8850822,9.542607569,4.981481968,2.268685246,-7.771404316,9.644960186
00:58.8,1.42E+12,6.30923,1.8612295,-7.824379,10.22210669,4.992124842,2.252006928,-7.790839896,9.662216144
00:58.8,1.42E+12,5.8357644,1.9699036,-8.375982,10.39681397,4.984104518,2.23902592,-7.812044796,9.670877377
00:58.8,1.42E+12,5.285359,2.222129,-8.567883,10.30929174,4.95284053,2.228877026,-7.83244737,9.666044805
00:58.8,1.42E+12,4.523593,2.512525,-8.87235,10.27104036,4.89642285,2.227056806,-7.859777536,9.655079474
00:58.9,1.42E+12,3.508554,2.4405248,-9.707314,10.60651015,4.83579293,2.232637198,-7.903456716,9.66320455
00:58.9,1.42E+12,2.6676028,2.467469,-10.057585,10.69390125,4.787021354,2.240747336,-7.953341976,9.689969115
00:58.9,1.42E+12,2.2802083,2.5526419,-9.755363,10.33839629,4.742213532,2.250363344,-7.987584756,9.707610841
00:58.9,1.42E+12,2.1537213,2.8084598,-9.182654,9.841092235,4.697372778,2.26483226,-8.002667376,9.70979458
00:59.0,1.42E+12,1.8514998,2.7165508,-8.8879175,9.476432728,4.651208774,2.284076238,-8.000380146,9.697906371
00:59.0,1.42E+12,2.1824615,2.7749295,-8.768167,9.452202096,4.605086684,2.284219938,-7.971810566,9.657360149
00:59.0,1.42E+12,2.9524603,2.2814057,-8.329429,9.126950271,4.560314784,2.268194262,-7.909447246,9.581057534
00:59.0,1.42E+12,3.753295,2.1348605,-7.664362,8.797005035,4.553653638,2.258865658,-7.840192266,9.514281679
00:59.0,1.42E+12,5.1808763,2.5402176,-8.120613,9.961854254,4.60330838,2.260901422,-7.811428066,9.508973424
00:59.0,1.42E+12,6.526578,2.3507116,-9.062903,11.41307479,4.67829644,2.256099406,-7.827253146,9.555196257
00:59.1,1.42E+12,7.426357,2.1733305,-9.068442,11.92102278,4.76696306,2.250216636,-7.847958086,9.615202778
00:59.1,1.42E+12,7.6833725,2.141896,-7.890392,11.21963535,4.859329984,2.258446524,-7.847116834,9.666029922
00:59.1,1.42E+12,7.3928266,2.1353097,-7.2645435,10.58239221,4.943185604,2.267535624,-7.849826204,9.717816233
00:59.1,1.42E+12,6.5288234,2.0905526,-7.3399863,10.04347271,5.000151146,2.265802226,-7.87162387,9.767225453
00:59.1,1.42E+12,5.627697,1.8999989,-8.0050535,9.968041477,5.012665118,2.252165584,-7.913431932,9.803284196
00:59.2,1.42E+12,4.935836,2.1516256,-8.770262,10.29123245,4.993597768,2.25060882,-7.963463884,9.831401917
00:59.2,1.42E+12,4.234095,2.0071762,-9.030571,10.17386502,4.95607978,2.253776236,-8.008086096,9.848350105
00:59.2,1.42E+12,3.3498838,2.1011806,-8.541239,9.412196611,4.89604861,2.257572342,-8.034227744,9.840301198
00:59.2,1.42E+12,2.9106972,2.485731,-8.232131,9.078490932,4.825626054,2.262655772,-8.052923864,9.822272237
00:59.2,1.42E+12,3.06802,2.833907,-8.094567,9.108555897,4.75867628,2.267326066,-8.077622496,9.809532719
00:59.3,1.42E+12,2.9274623,2.532883,-7.9535604,8.845600875,4.693406012,2.266972802,-8.108853544,9.801305619
00:59.3,1.42E+12,2.9463232,2.4783962,-7.4995546,8.430100078,4.62593233,2.26470951,-8.128621436,9.781170889
00:59.3,1.42E+12,3.2018418,2.4851322,-6.991212,8.081133472,4.566014926,2.265179534,-8.13110927,9.751352202
00:59.3,1.42E+12,3.4750237,2.4891737,-6.728059,7.971107409,4.51533033,2.270295892,-8.11890365,9.715889523
00:59.3,1.42E+12,3.768713,2.478546,-6.4705944,7.887647294,4.479779258,2.277454012,-8.10099789,9.684418358
00:59.4,1.42E+12,4.0757246,2.0993843,-6.5256796,7.975176468,4.457281042,2.277379168,-8.084361482,9.658878589
00:59.4,1.42E+12,4.261189,1.9417621,-6.28513,7.837795026,4.452928102,2.271014406,-8.062084802,9.636847195
00:59.4,1.42E+12,5.461842,2.634222,-6.525231,8.907832687,4.47896795,2.27780728,-8.038733362,9.634173922
00:59.4,1.42E+12,6.1623855,2.46687,-7.4899745,10.00800483,4.519913804,2.277645612,-8.030257982,9.649199776
00:59.4,1.42E+12,6.3987436,2.2888901,-8.070168,10.55038147,4.562428396,2.261158894,-8.019184002,9.657898823
00:59.5,1.42E+12,6.0659857,2.294279,-7.04959,9.578967471,4.61108322,2.247639008,-7.969777742,9.63720331
00:59.5,1.42E+12,5.1087265,2.286645,-6.360723,8.472699032,4.652029074,2.241899946,-7.902762102,9.596601
00:59.5,1.42E+12,4.860243,2.5071363,-7.0668044,8.935738295,4.697151242,2.240588672,-7.85579577,9.573281308
00:59.5,1.42E+12,5.093608,1.9486477,-7.7041793,9.439091535,4.756176502,2.232834794,-7.836276376,9.577246342
00:59.5,1.42E+12,5.293143,1.6955241,-8.243507,9.942211648,4.813420462,2.228281262,-7.84390151,9.60706611
00:59.6,1.42E+12,5.1081276,1.8416203,-9.12233,10.61609333,4.84906434,2.225287488,-7.87781798,9.651840795
00:59.6,1.42E+12,4.983736,2.1267774,-8.838221,10.36701293,4.86892204,2.229409916,-7.900780234,9.681694629
00:59.6,1.42E+12,4.784351,2.310146,-8.652607,10.1535411,4.86938608,2.238798392,-7.92047628,9.700535131
00:59.6,1.42E+12,4.305796,1.9937041,-9.13206,10.29122223,4.847085452,2.243169304,-7.965487684,9.727595531
00:59.6,1.42E+12,3.913462,1.8203645,-9.73321,10.64726672,4.806172532,2.239852202,-8.025593704,9.756453065
00:59.7,1.42E+12,3.7567377,1.9330802,-9.85805,10.72525184,4.74976982,2.239235484,-8.069802764,9.765436357
00:59.7,1.42E+12,3.516637,1.9398161,-9.676627,10.47696198,4.68008074,2.241594578,-8.101105664,9.757599798
00:59.7,1.42E+12,3.240611,1.9708017,-9.134604,9.890733503,4.60805652,2.246995348,-8.132193004,9.748375229
00:59.7,1.42E+12,3.6666253,2.0628603,-8.664133,9.631548907,4.54917796,2.247106118,-8.170417518,9.747580516
00:59.7,1.42E+12,4.015849,1.8684146,-8.408914,9.504096536,4.497813774,2.240938944,-8.209677884,9.748308031
00:59.8,1.42E+12,4.098627,1.6678318,-7.880213,9.037597199,4.453206534,2.236343502,-8.2295805,9.738207823
00:59.8,1.42E+12,4.21733,1.5712825,-7.3024144,8.577881854,4.411368534,2.230544562,-8.219141208,9.705323327
00:59.8,1.42E+12,4.4233017,1.7432748,-7.0307293,8.487388258,4.38311928,2.226011986,-8.192236154,9.667134812
00:59.8,1.42E+12,4.5628114,1.6579523,-7.070846,8.576999292,4.368668328,2.214728452,-8.162295414,9.632488963
00:59.8,1.42E+12,4.5667033,1.660946,-6.838679,8.389341518,4.369530534,2.197696872,-8.121621994,9.594854986
00:59.9,1.42E+12,4.453539,1.3534855,-6.3008475,7.833684436,4.388430234,2.175956086,-8.053492664,9.539398472
00:59.9,1.42E+12,4.6104126,1.8880239,-6.158194,7.921104212,4.42728643,2.164367184,-7.975504844,9.483942531
00:59.9,1.42E+12,5.793103,2.3517594,-6.6744704,9.145456236,4.497544324,2.160349534,-7.913886992,9.46008373
01:00.0,1.42E+12,6.98223,2.5565336,-7.300169,10.42016637,4.594114498,2.15531101,-7.876237292,9.471665213
01:00.0,1.42E+12,7.2465806,2.4149282,-7.9417353,11.01889142,4.702016114,2.149278558,-7.857313648,9.502514387
01:00.0,1.42E+12,6.9296894,2.7834618,-8.51624,11.32672055,4.796960672,2.149449204,-7.852275108,9.540004756
01:00.0,1.42E+12,5.947881,2.7563682,-8.8509445,11.01426677,4.856869086,2.158948454,-7.862705418,9.577751086
01:00.0,1.42E+12,4.766538,2.6373656,-9.028774,10.54487277,4.877133946,2.168998556,-7.889993658,9.612708441
01:00.0,1.42E+12,3.8068836,2.6186545,-9.016949,10.13188449,4.849654092,2.170567294,-7.907920378,9.616109045
01:00.0,1.42E+12,3.4245787,2.3511608,-9.184301,10.08003379,4.787614106,2.170576278,-7.910348338,9.589448225
01:00.1,1.42E+12,3.112178,2.0097208,-9.1202345,9.843947731,4.701330526,2.167304084,-7.911384188,9.547906724
01:00.1,1.42E+12,3.2431557,1.9844234,-8.595575,9.398931041,4.61252619,2.164154632,-7.925487848,9.511492638
01:00.1,1.42E+12,3.5745666,2.2433848,-8.159832,9.186574988,4.53616099,2.166316134,-7.943393618,9.483576294
01:00.1,1.42E+12,4.358187,2.2811065,-7.932155,9.333612577,4.492748262,2.170127212,-7.955236992,9.469379091
01:00.1,1.42E+12,4.8229704,2.2923331,-7.9656854,9.589993661,4.47665373,2.177973896,-7.95444963,9.461818135
01:00.2,1.42E+12,4.993017,2.219285,-8.21821,9.868861144,4.47779735,2.179327084,-7.94340859,9.453370709
01:00.2,1.42E+12,5.032086,2.0766315,-7.993827,9.671378289,4.49375717,2.18071619,-7.92267371,9.443320974
01:00.2,1.42E+12,4.78495,2.2360501,-7.6737924,9.315726292,4.522458494,2.18341358,-7.905324778,9.441391568
01:00.2,1.42E+12,4.430786,2.0104692,-7.721992,9.127048342,4.55286027,2.173908344,-7.895121998,9.442362716
01:00.3,1.42E+12,4.276906,2.078877,-7.603588,8.96817735,4.57703799,2.158807744,-7.885302418,9.439555145
01:00.3,1.42E+12,4.293821,1.9815793,-7.740703,9.070944727,4.604365164,2.14778167,-7.88104527,9.444062022
01:00.3,1.42E+12,4.290528,2.0877085,-7.895481,9.225279265,4.63124926,2.139967916,-7.888963798,9.459965606
01:00.3,1.42E+12,4.5532317,2.01481,-7.8180923,9.268977584,4.658277058,2.130561472,-7.905501404,9.483722488
01:00.3,1.42E+12,4.6119094,2.102827,-7.7396555,9.251694816,4.681014772,2.122834538,-7.925733334,9.509334236
01:00.3,1.42E+12,4.615053,2.0984862,-7.5721536,9.112621394,4.697941572,2.115233342,-7.947764518,9.533833718
01:00.4,1.42E+12,4.397705,2.272724,-7.680678,9.137718434,4.70438118,2.118700136,-7.970864486,9.557084557
01:00.4,1.42E+12,4.423751,2.2745202,-8.01119,9.429855792,4.70763242,2.125355298,-8.005385686,9.588925773
01:00.4,1.42E+12,4.330345,2.1321661,-8.490344,9.766471284,4.68500248,2.11531418,-8.044687946,9.606098545
01:00.4,1.42E+12,4.382287,2.0803738,-8.9199505,10.15371417,4.64940051,2.107584256,-8.073287466,9.609012731
01:00.4,1.42E+12,4.505481,2.217339,-8.86726,10.19039995,4.611535258,2.106153234,-8.089229306,9.601813101
01:00.5,1.42E+12,4.6331654,2.20731,-8.4238825,9.86408817,4.582878852,2.104413854,-8.116715156,9.607515515
01:00.5,1.42E+12,4.97236,2.2357507,-8.090376,9.755876638,4.580151522,2.103395968,-8.151308216,9.633179067
01:00.5,1.42E+12,5.2591634,2.015409,-7.6868153,9.529312806,4.58812993,2.093561422,-8.163708434,9.645050557
01:00.5,1.42E+12,5.388794,1.9601738,-7.4461155,9.39819228,4.59403365,2.093791944,-8.158547158,9.644232572
01:00.5,1.42E+12,5.6503,1.9043399,-7.400311,9.503525843,4.60117679,2.09796826,-8.141683238,9.635458856
01:00.6,1.42E+12,5.6073394,1.8247055,-7.4312963,9.486620579,4.611161026,2.097629964,-8.107862564,9.612869401
01:00.6,1.42E+12,5.2937417,1.6612455,-7.6266403,9.431281995,4.61736114,2.088319326,-8.08363095,9.594154782
01:00.6,1.42E+12,5.0019984,1.7848883,-7.8776684,9.500709113,4.621714088,2.077814172,-8.068132178,9.581098143
01:00.6,1.42E+12,4.8062053,1.7658778,-8.292306,9.745782297,4.631722274,2.073257646,-8.051337098,9.570189344
01:00.6,1.42E+12,4.297563,1.7646804,-8.165969,9.395009013,4.639404294,2.072143964,-8.019992278,9.54514419
01:00.7,1.42E+12,3.9704933,1.9450552,-7.921078,9.071468098,4.643679406,2.072383464,-7.981252838,9.512068515
01:00.7,1.42E+12,3.8779857,1.8814375,-7.730375,8.850834864,4.65090638,2.071215892,-7.942327798,9.479545973
01:00.7,1.42E+12,3.9832168,2.1119583,-7.7520795,8.967782363,4.665758496,2.074039024,-7.914677308,9.46108695
01:00.7,1.42E+12,4.0487804,2.0477417,-8.129894,9.310265584,4.673401598,2.073736652,-7.903992528,9.454661284
01:00.7,1.42E+12,4.273164,2.0633094,-8.416548,9.662062745,4.678547898,2.077634548,-7.904145208,9.457820608
01:00.8,1.42E+12,4.4598255,2.0311263,-8.217611,9.567896743,4.685771868,2.084900438,-7.910893168,9.468426599
01:00.8,1.42E+12,4.6267285,2.0383112,-8.171059,9.608721785,4.693959838,2.094241012,-7.92826606,9.489043397
01:00.8,1.42E+12,4.557872,1.8817369,-8.185578,9.556088014,4.696651244,2.097010254,-7.951363034,9.510417392
01:00.8,1.42E+12,4.7249246,2.0472927,-8.137229,9.62968409,4.699893508,2.104797062,-7.972690694,9.531471088
01:00.8,1.42E+12,4.881948,1.886527,-8.081096,9.627902833,4.706198402,2.109308682,-7.997539034,9.556242315
01:00.9,1.42E+12,4.720284,1.8247055,-7.980804,9.450072153,4.711533302,2.118733082,-8.031138164,9.588570069
01:00.9,1.42E+12,5.1748886,1.7818946,-7.830067,9.553249165,4.722822822,2.116610496,-8.064575624,9.621212968
01:00.9,1.42E+12,5.1645603,1.7910255,-7.9826,9.674831171,4.710251968,2.105395818,-8.090738216,9.631800467
01:00.9,1.42E+12,5.20318,1.6905844,-7.94907,9.649811998,4.674670968,2.088076834,-8.103716236,9.616393379
01:00.9,1.42E+12,5.2545233,1.6810043,-7.810009,9.562009786,4.634829822,2.073398356,-8.10108171,9.587255747
01:01.0,1.42E+12,5.209467,1.6986676,-7.6419086,9.403339039,4.600425374,2.051702472,-8.083595082,9.548788116
01:01.0,1.42E+12,4.9515533,1.5495776,-7.7866573,9.356874624,4.58049882,2.02756666,-8.062309338,9.515640273
01:01.0,1.42E+12,4.7120514,1.3968952,-7.8005786,9.219748971,4.579409088,2.002757252,-8.03774543,9.489137797
01:01.0,1.42E+12,4.6053233,1.4885046,-8.141419,9.471396517,4.595377882,1.980154254,-8.02023483,9.475928038
01:01.0,1.42E+12,4.618346,1.4058765,-8.526569,9.798366569,4.619253228,1.961248568,-8.00708019,9.470294694
01:01.1,1.42E+12,4.359235,1.3073813,-8.672814,9.794379936,4.644194368,1.947201778,-7.99813178,9.469303338
01:01.1,1.42E+12,4.3060956,1.5393988,-8.379126,9.545782341,4.665453166,1.938301286,-7.9938028,9.472240364
01:01.1,1.42E+12,4.280648,1.3820759,-8.148605,9.307730365,4.679574794,1.921075108,-7.99357826,9.474663471
01:01.1,1.42E+12,4.4962,1.5986755,-7.989336,9.305969456,4.682335054,1.907426488,-7.99472188,9.474110609
01:01.1,1.42E+12,4.7373486,1.4322217,-7.9914317,9.399825071,4.680622618,1.89022426,-7.995236806,9.470307237
01:01.2,1.42E+12,4.990173,1.421444,-8.089178,9.61026172,4.680565738,1.87426744,-7.992656166,9.465135248
01:01.2,1.42E+12,5.111121,1.3220508,-8.174501,9.731076137,4.682146438,1.859175826,-7.996269646,9.466329205
01:01.2,1.42E+12,5.242099,1.2584331,-7.8296185,9.506112857,4.691289418,1.839623486,-7.999386168,9.470136937
01:01.2,1.42E+12,4.9505053,1.3877641,-8.131091,9.620188812,4.701683804,1.827169384,-8.007568148,9.479999746
01:01.2,1.42E+12,4.92416,1.3305831,-8.263117,9.710659383,4.714628884,1.812203506,-8.020758728,9.494849387
01:01.3,1.42E+12,4.763694,1.2722044,-8.141719,9.518344018,4.724026344,1.798016008,-8.028779048,9.503797373
01:01.3,1.42E+12,4.5214977,1.1895763,-8.139025,9.386307111,4.728645738,1.780053364,-8.033649928,9.50701793
01:01.3,1.42E+12,4.506379,1.1567944,-8.214917,9.440894359,4.727708684,1.762893052,-8.041586422,9.510456265
01:01.3,1.42E+12,4.6253815,0.93765014,-8.12241,9.393981372,4.727978126,1.739589515,-8.049241512,9.513301996
01:01.3,1.42E+12,4.906497,0.9207353,-7.982151,9.414680074,4.733807006,1.716034497,-8.05744146,9.51934317
01:01.4,1.42E+12,5.09256,0.83825684,-8.067623,9.577232521,4.747704106,1.687345154,-8.06518036,9.528133452
01:01.4,1.42E+12,5.17429,1.085842,-7.8842545,9.492828813,4.762714886,1.66357159,-8.06264165,9.529392912
01:01.4,1.42E+12,5.156477,1.0681787,-7.6122704,9.256182876,4.779237526,1.642291842,-8.045080178,9.519187144
01:01.4,1.42E+12,4.7283673,0.91744214,-7.760911,9.134051508,4.786159132,1.619033208,-8.021899388,9.498793891
01:01.4,1.42E+12,4.547992,1.0310559,-7.8309655,9.11434738,4.787009352,1.595307546,-8.001173498,9.477272839
01:01.5,1.42E+12,4.2008643,1.0133927,-8.273445,9.334030094,4.77836333,1.5714292,-7.998164748,9.466671678
01:01.5,1.42E+12,4.066444,1.0300081,-8.5590515,9.531749371,4.76024501,1.547314348,-8.007538258,9.462189132
01:01.5,1.42E+12,3.9363642,0.73871386,-8.647667,9.53009999,4.733789026,1.521780446,-8.026755292,9.462204876
01:01.5,1.42E+12,4.0409966,0.6123766,-8.805738,9.708021443,4.706833078,1.494824502,-8.053947742,9.468401459
01:01.6,1.42E+12,4.3084903,0.59381515,-8.949888,9.950688434,4.679996884,1.468614007,-8.084939282,9.477344711
01:01.6,1.42E+12,4.4006987,0.45879593,-8.804241,9.853491886,4.65586407,1.441295815,-8.112398176,9.484682137
01:01.6,1.42E+12,4.814139,0.4978647,-8.660391,9.920996716,4.646272016,1.418028199,-8.13307319,9.494476432
01:01.6,1.42E+12,5.3729267,0.4725673,-8.370294,9.957584186,4.653690582,1.391781779,-8.142925702,9.503613933
01:01.6,1.42E+12,5.4266653,0.3691324,-8.215366,9.85277593,4.666099782,1.363846871,-8.141386902,9.505753806
01:01.6,1.42E+12,5.7044873,0.2841092,-8.045619,9.866806904,4.694238268,1.334235447,-8.138979902,9.515189764
01:01.7,1.42E+12,5.4414845,-0.053289186,-7.7237883,9.448253754,4.723658092,1.294268559,-8.135034108,9.522725477
01:01.7,1.42E+12,5.365293,0.17693207,-7.6829233,9.372565517,4.753404238,1.260178451,-8.134085074,9.53316009
01:01.7,1.42E+12,5.3120036,0.19220032,-8.087382,9.677813329,4.779979974,1.221783291,-8.140791124,9.547360709
01:01.7,1.42E+12,5.2947893,0.02350113,-8.441246,9.964435763,4.804900152,1.18129848,-8.147018164,9.560444113
01:01.7,1.42E+12,5.0168176,-0.18351837,-8.469837,9.84582534,4.819773224,1.136361924,-8.148083944,9.564119365
01:01.8,1.42E+12,4.605024,-0.16316071,-8.561596,9.722849044,4.822677194,1.092476184,-8.154963644,9.567218411
01:01.8,1.42E+12,4.5628114,0.13292359,-8.537197,9.680942577,4.821398852,1.054368432,-8.162286404,9.568662826
01:01.8,1.42E+12,5.048851,0.1353186,-8.714578,10.07239183,4.831218432,1.019440066,-8.172866404,9.578988903
01:01.8,1.42E+12,5.345534,0.22632934,-8.682694,10.198781,4.84363062,0.983020799,-8.183775704,9.590370841
01:01.8,1.42E+12,5.0172668,0.07155121,-8.370593,9.759350024,4.846336996,0.946721283,-8.189565644,9.592999785
01:01.9,1.42E+12,5.2009344,0.16705261,-7.942633,9.495422275,4.855950004,0.913568225,-8.188802224,9.593906787
01:01.9,1.42E+12,4.878655,0.12558883,-8.176447,9.522149584,4.850025332,0.88044211,-8.195729824,9.593284796
01:01.9,1.42E+12,4.452042,-0.028440857,-8.488848,9.585511318,4.835774966,0.844052783,-8.205854784,9.591498398
01:01.9,1.42E+12,4.1430845,-0.086969145,-8.498577,9.455079261,4.814573056,0.808501712,-8.216844924,9.587603744
01:01.9,1.42E+12,3.9016366,-0.105829924,-8.71847,9.552260846,4.787515322,0.772765027,-8.235014144,9.587408765
01:02.0,1.42E+12,3.8781354,0.02005829,-8.934172,9.739597827,4.76088869,0.739192841,-8.260859412,9.594133941
01:02.0,1.42E+12,4.0737786,0.09041199,-8.912316,9.799654223,4.743333196,0.710009529,-8.283372586,9.602989533
01:02.0,1.42E+12,4.2839413,0.11660752,-8.88672,9.866080414,4.734770994,0.684403775,-8.305095414,9.615916162
01:02.0,1.42E+12,4.359235,0.061372377,-8.52103,9.571554138,4.729849228,0.655861131,-8.312687634,9.617919314
01:02.0,1.42E+12,4.6384044,0.38260436,-8.3024845,9.518005587,4.730250396,0.635395688,-8.308205944,9.612312094
01:02.1,1.42E+12,4.888534,0.40805146,-8.174651,9.533582204,4.740836376,0.617409091,-8.298242684,9.60709614
01:02.1,1.42E+12,5.0641193,0.3849994,-8.394094,9.810929768,4.75599685,0.594321103,-8.298542044,9.612399088
01:02.1,1.42E+12,5.1826725,0.26899064,-8.320298,9.8061108,4.77403734,0.572059398,-8.301975904,9.622366697
01:02.1,1.42E+12,5.3139496,0.32557297,-8.404123,9.948534641,4.790392332,0.546597348,-8.310271644,9.635218001
01:02.1,1.42E+12,5.1591716,0.25941056,-8.4878,9.936150878,4.798828792,0.523141125,-8.32019901,9.645944517
01:02.2,1.42E+12,5.170847,0.10717712,-8.383766,9.850719668,4.802442272,0.496855787,-8.32609077,9.650753676
01:02.2,1.42E+12,5.162165,0.21719833,-8.222402,9.710974063,4.803463152,0.474758738,-8.32704879,9.650351634
01:02.2,1.42E+12,5.2691927,0.18157242,-8.053253,9.625603573,4.804005026,0.453221524,-8.33152148,9.652741449
01:02.2,1.42E+12,5.3456836,0.22797592,-7.8969784,9.538897946,4.811908592,0.430025761,-8.326839228,9.651115631
01:02.2,1.42E+12,5.3539166,0.27153534,-7.797884,9.462829877,4.820503724,0.408844805,-8.317534568,9.646159041
01:02.3,1.42E+12,5.288353,0.40924895,-8.036937,9.629460966,4.830996904,0.391585696,-8.315438928,9.64838138
01:02.3,1.42E+12,4.978946,0.35401383,-8.210726,9.608915158,4.84014587,0.374874447,-8.316872948,9.652833541
