time,time_milisec,ax,ay,az,resultant
49:23.0,1.42163E+12,1.4498849,-16.089891,-10.011631,19.0057758
49:23.0,1.42163E+12,0.060623933,-11.991714,-9.92062,15.5635337
49:23.0,1.42163E+12,-1.1987072,-7.5934095,-5.0181646,9.180345459
49:23.0,1.42163E+12,0.7247928,-3.4914894,-8.958421,9.642050075
49:23.0,1.42163E+12,3.7824843,-2.3430777,-6.187383,7.621083189
49:23.1,1.42163E+12,2.097588,-1.499881,0.12753479,2.581817878
49:23.1,1.42163E+12,-0.92028624,-0.52885026,0.7747888,1.314118353
49:23.1,1.42163E+12,-1.4019846,-1.7353413,0.52226394,2.291228899
49:23.1,1.42163E+12,-0.88451064,-10.596314,-0.97462326,10.67773946
49:23.1,1.42163E+12,-0.35116974,-18.353483,-1.5690372,18.42377638
49:23.2,1.42163E+12,-9.274115,-19.368973,-5.7857685,22.24053599
49:23.2,1.42163E+12,-10.766361,-17.054035,-2.9786558,20.38693281
49:23.2,1.42163E+12,-7.2212834,-19.133062,-3.1585817,20.69293681
49:23.2,1.42163E+12,-4.3400745,-19.035465,6.71803,20.64744782
49:23.2,1.42163E+12,-0.34338593,-15.108831,4.887636,15.88344024
49:23.3,1.42163E+12,1.488804,-8.991502,2.6708958,9.497227487
49:23.3,1.42163E+12,-0.92043597,-5.5281544,4.2170305,7.013632417
49:23.4,1.42163E+12,-3.7094362,-1.126707,3.5762131,5.274342208
49:23.4,1.42163E+12,-6.206843,2.9870384,2.223177,7.238080851
49:23.4,1.42163E+12,-7.3265142,6.4420037,1.4745836,9.866692393
49:23.4,1.42163E+12,-6.5379543,5.8932447,1.2618759,8.891991358
49:23.4,1.42163E+12,-4.6375065,2.8614495,-1.4488372,5.63857154
49:23.4,1.42163E+12,2.7303224,-5.234914,-11.178155,12.64160331
49:23.4,1.42163E+12,3.2576756,-17.397123,-17.578396,24.94538725
49:23.4,1.42163E+12,2.5750952,-15.026503,-11.871663,19.32261085
49:23.5,1.42163E+12,-3.851341,-0.97656924,12.992831,13.5867646
49:23.5,1.42163E+12,-13.761333,-13.835279,13.103003,23.50484883
49:23.5,1.42163E+12,-11.254646,-14.6563225,9.183253,20.63509102
49:23.5,1.42163E+12,-7.0004926,-4.787195,3.1428645,9.044430876
49:23.5,1.42163E+12,-10.076446,-10.632839,7.8342586,16.61227369
49:23.6,1.42163E+12,-9.741742,-15.683636,9.833351,20.91824006
49:23.6,1.42163E+12,-6.1444225,-19.051033,-1.0288106,20.04380796
49:23.6,1.42163E+12,2.6929002,-18.629509,-7.460935,20.24786083
49:23.7,1.42163E+12,5.1756372,-18.43671,-2.367926,19.29524733
49:23.7,1.42163E+12,4.7425876,-18.878143,-5.209317,20.14977429
49:23.7,1.42163E+12,4.0014787,-14.116395,-11.36811,18.5612059
49:23.7,1.42163E+12,1.7820442,-11.747272,-8.147408,14.40674627
49:23.7,1.42163E+12,0.3851491,-7.9137435,-8.00206,11.26093425
49:23.7,1.42163E+12,2.816094,-4.453389,-10.013277,11.31498013
49:23.7,1.42163E+12,4.0637493,-2.6470954,-3.5182836,5.991618472
49:23.8,1.42163E+12,0.7575746,-1.6631913,1.1485616,2.158545419
49:23.8,1.42163E+12,-1.0590477,0.41987687,-1.1633807,1.628291519
49:23.8,1.42163E+12,-1.5593075,-1.8606308,-0.9786649,2.617474325
49:23.8,1.42163E+12,-0.4629872,-10.42567,-1.8570383,10.59988412
49:23.8,1.42163E+12,1.4789245,-18.268461,-2.5849745,18.50961853
49:23.9,1.42163E+12,-7.125333,-19.402653,-5.59252,21.41283713
49:23.9,1.42163E+12,-8.104896,-17.63348,-2.717,19.59619976
49:23.9,1.42163E+12,-4.8359933,-19.316282,6.004314,20.79801356
49:23.9,1.42163E+12,-1.4557228,-18.87455,6.1126885,19.89303213
49:24.0,1.42163E+12,1.0642868,-12.910053,2.4724085,13.18768284
49:24.0,1.42163E+12,0.9105565,-8.200697,2.7232869,8.688891527
49:24.0,1.42163E+12,-1.7088464,-4.399052,2.689158,5.431701876
49:24.0,1.42163E+12,-5.8184004,0.06870712,1.8655705,6.110552935
49:24.0,1.42163E+12,-7.815847,3.1985486,0.89992857,8.492823377
49:24.0,1.42163E+12,-7.8040214,5.4304075,0.3941304,9.515640514
49:24.1,1.42163E+12,-6.7124915,4.748575,-0.29608428,8.227646843
49:24.1,1.42163E+12,-3.907624,1.6227754,-2.1912932,4.764943988
49:24.1,1.42163E+12,4.884343,-8.416997,-12.639865,15.95207925
49:24.1,1.42163E+12,6.388565,-18.035545,-18.464104,26.58980599
49:24.1,1.42163E+12,0.97088104,-9.825567,3.8136196,10.58433141
49:24.2,1.42163E+12,-8.950637,-12.3035145,12.178525,19.48863369
49:24.2,1.42163E+12,-10.753637,-16.36412,12.557087,23.26167591
49:24.2,1.42163E+12,-7.5552387,-4.5140133,4.684658,9.970153884
49:24.2,1.42163E+12,-9.571096,-4.096681,3.4852026,10.97885746
49:24.2,1.42163E+12,-10.028396,-11.141781,10.130633,18.09247731
49:24.3,1.42163E+12,-8.592582,-17.534536,10.111323,21.98934449
49:24.3,1.42163E+12,-2.0648062,-18.565443,-5.4429812,19.45675057
49:24.3,1.42163E+12,4.753066,-16.197367,-5.229525,17.67184953
49:24.3,1.42163E+12,4.6033773,-16.562609,-0.64156586,17.20240408
49:24.3,1.42163E+12,3.187771,-17.06167,-3.653752,17.73731577
49:24.4,1.42163E+12,3.859125,-14.500945,-9.755962,17.8982973
49:24.4,1.42163E+12,4.4493475,-12.328214,-9.07907,15.94399779
49:24.4,1.42163E+12,1.9541862,-9.5809765,-8.432265,12.91189558
49:24.4,1.42163E+12,3.3889527,-6.098169,-10.908266,12.94847221
49:24.4,1.42163E+12,4.119733,-3.8896613,-5.1443524,7.652844349
49:24.5,1.42163E+12,0.17573456,-3.2841706,3.079097,4.505274409
49:24.5,1.42163E+12,-1.3024416,-1.8107845,1.5932868,2.741141633
49:24.5,1.42163E+12,-1.7859361,-7.575896,-3.011737,8.345916829
49:24.5,1.42163E+12,-2.5158184,-15.708783,-2.9856913,16.1867093
49:24.5,1.42163E+12,-10.038724,-19.054476,-4.98673,22.10693356
49:24.6,1.42163E+12,-8.949141,-15.688875,-3.6347415,18.42387769
49:24.6,1.42163E+12,-5.358407,-19.048338,-1.6492703,19.85627857
49:24.6,1.42163E+12,-2.6927505,-19.312988,8.55965,21.29577467
49:24.6,1.42163E+12,1.6892372,-15.857425,2.983446,16.22382199
49:24.6,1.42163E+12,2.6680517,-8.284223,0.9128018,8.75100324
49:24.7,1.42163E+12,-1.4340179,-3.658542,3.7404218,5.425135219
49:24.7,1.42163E+12,-6.2971053,0.45250902,4.551136,7.782746203
49:24.7,1.42163E+12,-7.9999638,5.341642,3.4910402,10.23327522
49:24.7,1.42163E+12,-8.114027,9.004375,2.2561083,12.32908058
49:24.7,1.42163E+12,-5.8098683,7.9564047,0.44771898,9.862017932
49:24.8,1.42163E+12,-1.5569124,2.2487736,-2.975213,4.04139225
49:24.8,1.42163E+12,6.0463767,-10.398127,-14.942976,19.18260274
49:24.8,1.42163E+12,7.0388126,-18.151403,-18.91811,27.14614521
49:24.8,1.42163E+12,-4.269272,-10.739866,10.659184,15.72226474
49:24.8,1.42163E+12,-11.723321,-16.26862,15.036831,25.06412852
49:24.9,1.42163E+12,-7.7833643,-13.917608,8.270152,17.96318419
49:24.9,1.42163E+12,-7.9881387,-2.7710376,2.9148884,8.943465976
49:25.0,1.42163E+12,-11.291619,-5.123396,3.540288,12.8950954
49:25.0,1.42163E+12,-12.665911,-13.86357,14.654376,23.81962658
49:25.0,1.42163E+12,-9.940379,-18.803448,9.733509,23.39063891
49:25.0,1.42163E+12,-1.5447876,-19.279758,-6.3426104,20.35495379
49:25.0,1.42163E+12,6.634204,-19.229013,-8.000263,21.85799194
49:25.0,1.42163E+12,7.7444453,-19.517612,-3.0500574,21.21830486
49:25.0,1.42163E+12,6.8966084,-16.742983,-7.818691,19.72365626
49:25.0,1.42163E+12,7.20362,-11.952794,-9.364377,16.80633756
49:25.1,1.42163E+12,3.0844858,-9.795032,-7.440428,12.6813514
49:25.1,1.42163E+12,2.3104453,-5.729336,-10.15129,11.88327132
49:25.1,1.42163E+12,3.579207,-3.3862581,-6.7855396,8.385762597
49:25.1,1.42163E+12,0.9062155,-1.8290465,0.12169693,2.044858864
49:25.1,1.42163E+12,-1.2786411,0.44741958,0.16690293,1.364904367
49:25.2,1.42163E+12,-1.6212785,-0.34413436,-2.2089565,2.761604833
49:25.2,1.42163E+12,-1.0268646,-6.0400896,-0.6512956,6.16127578
49:25.2,1.42163E+12,3.009342,-16.161293,1.4688954,16.50458071
49:25.3,1.42163E+12,-3.3741333,-19.115997,-6.6213307,20.50970836
49:25.3,1.42163E+12,-7.606133,-18.035694,-2.673291,19.75565747
49:25.3,1.42163E+12,-8.277487,-18.803448,0.21270767,20.54584367
49:25.3,1.42163E+12,-5.913603,-19.4754,4.870272,20.92800647
49:25.3,1.42163E+12,-0.1300795,-18.075062,6.3238993,19.14984306
49:25.3,1.42163E+12,1.9546353,-11.811488,1.8805394,12.11892224
49:25.3,1.42163E+12,0.25911117,-6.0577526,3.635041,7.069443276
49:25.4,1.42163E+12,-3.5735188,-1.7217196,2.8205845,4.867242743
49:25.4,1.42163E+12,-6.8066454,2.5840764,2.335144,7.645964291
49:25.4,1.42163E+12,-7.3664813,5.6461086,0.04430786,9.281462829
49:25.4,1.42163E+12,-6.413563,6.4017377,-0.56342834,9.079288927
49:25.4,1.42163E+12,-4.6843586,3.8166132,-1.8708097,6.325320604
49:25.5,1.42163E+12,3.4928367,-3.9751337,-8.300988,9.844185996
49:25.5,1.42163E+12,7.709568,-17.0949,-15.457456,24.30238652
49:25.5,1.42163E+12,3.3759298,-14.434783,-13.43591,20.00708724
49:25.5,1.42163E+12,-2.1209395,-1.3798306,7.1480856,7.582706944
49:25.5,1.42163E+12,-8.0210705,-6.113587,12.750186,16.25671434
49:25.6,1.42163E+12,-16.624279,-17.516724,14.830709,28.33994004
49:25.6,1.42163E+12,-6.9572325,-8.841963,0.4447252,11.25971466
49:25.6,1.42163E+12,-7.240443,-6.742728,-0.3939807,9.901697658
49:25.6,1.42163E+12,-7.7086697,-12.70962,9.207354,17.48523368
49:25.6,1.42163E+12,-5.4423823,-17.919985,8.171207,20.4331596
49:25.7,1.42163E+12,-0.6186635,-19.295025,-1.0442286,19.33316186
49:25.7,1.42163E+12,4.086502,-17.380507,-2.8589048,18.08189312
49:25.7,1.42163E+12,4.4560833,-18.703754,-0.2468367,19.22883305
49:25.7,1.42163E+12,4.660259,-18.741476,-4.336931,19.7931783
49:25.7,1.42163E+12,5.281467,-14.490317,-11.277997,19.10644909
49:25.8,1.42163E+12,4.0824604,-12.682976,-10.609338,17.03180601
49:25.8,1.42163E+12,1.9202069,-8.270601,-6.743327,10.84262397
49:25.8,1.42163E+12,2.2333558,-4.1613464,-6.6596513,8.164290381
49:25.8,1.42163E+12,5.85223,-3.3456926,-6.201903,9.160013961
49:25.8,1.42163E+12,4.627627,-2.4602838,-0.327968,5.251237096
49:25.9,1.42163E+12,0.57166123,-1.4476396,1.974993,2.514568417
49:25.9,1.42163E+12,-2.0679498,-1.2957056,-0.120200045,2.443300519
49:25.9,1.42163E+12,-1.8058448,-7.858658,-3.1910641,8.671935833
49:25.9,1.42163E+12,1.0118958,-16.791931,-2.1607566,16.960594
49:25.9,1.42163E+12,-4.9416738,-19.201769,-5.480553,20.57096337
49:26.0,1.42163E+12,-8.041877,-19.185604,-2.5138724,20.95420581
49:26.0,1.42163E+12,-5.8640556,-19.398611,-0.6503975,20.27600241
49:26.0,1.42163E+12,-2.3444247,-19.556383,4.475992,20.19858776
49:26.0,1.42163E+12,1.1936178,-17.184864,5.394632,18.05121405
49:26.0,1.42163E+12,2.3041584,-10.632091,1.8604811,11.03684261
49:26.1,1.42163E+12,0.5906717,-6.460565,3.0237122,7.15755745
49:26.1,1.42163E+12,-2.8313622,-2.5512946,2.4589367,4.535646121
49:26.1,1.42163E+12,-6.8687663,1.7197738,1.723965,7.287635263
49:26.1,1.42163E+12,-8.586445,4.8499146,0.014968872,9.861487384
49:26.1,1.42163E+12,-7.466324,6.114485,0.6644682,9.67338818
49:26.2,1.42163E+12,-5.95312,5.2383566,0.22498214,7.932883118
49:26.2,1.42163E+12,-0.21989273,-0.086969145,-4.001928,4.008908101
49:26.2,1.42163E+12,10.009984,-14.97007,-13.874049,22.73305987
49:26.2,1.42163E+12,6.390062,-18.189125,-17.373022,25.95186032
49:26.3,1.42163E+12,-0.8680449,-5.1373167,7.91045,9.472103464
49:26.3,1.42163E+12,-10.249336,-12.691059,12.371623,20.47361528
49:26.3,1.42163E+12,-11.5646515,-16.870966,12.162508,23.79700105
49:26.3,1.42163E+12,-8.08873,-3.4983752,4.538263,9.912719764
49:26.3,1.42163E+12,-9.807006,-8.070019,5.0644183,13.67299916
49:26.3,1.42163E+12,-9.246122,-16.788038,13.228741,23.28794925
49:26.4,1.42163E+12,-5.762417,-19.201172,6.810088,21.17233465
49:26.4,1.42163E+12,3.389252,-18.8991,-12.445569,22.88132858
49:26.4,1.42163E+12,7.5318875,-19.140846,-2.7156527,20.74791759
49:26.4,1.42163E+12,6.028414,-18.772612,-2.0944445,19.82774406
49:26.4,1.42163E+12,4.4848237,-14.704672,-10.104737,18.39692181
49:26.5,1.42163E+12,2.6812243,-11.283536,-9.330098,14.88482036
49:26.5,1.42163E+12,0.48065048,-8.567434,-5.709577,10.30685305
49:26.5,1.42163E+12,0.9912387,-4.036656,-7.5655675,8.632204667
49:26.5,1.42163E+12,4.1055126,-2.843936,-6.691535,8.349841097
49:26.5,1.42163E+12,2.7702892,-1.7452208,0.12813355,3.27669286
49:26.6,1.42163E+12,-0.30341902,-0.58558226,0.2838098,0.717995604
49:26.6,1.42163E+12,-2.0907023,-1.7051042,-0.97776675,2.869572138
49:26.6,1.42163E+12,-1.169518,-9.401051,-1.3862672,9.574406979
49:26.6,1.42163E+12,1.8250049,-17.87882,-2.0305276,18.08606894
49:26.6,1.42163E+12,-5.793852,-19.349663,-5.510341,20.93661953
49:26.7,1.42163E+12,-8.254135,-17.634678,-1.2874727,19.51333387
49:26.7,1.42163E+12,-6.356981,-19.205362,0.24968079,20.23164545
49:26.7,1.42163E+12,-1.728755,-19.334394,4.6291237,19.95585557
49:26.7,1.42163E+12,1.6976198,-15.953525,7.6375675,17.76877346
49:26.7,1.42163E+12,2.611619,-9.518556,2.347718,10.14570066
49:26.8,1.42163E+12,-0.39457947,-5.5230646,4.054169,6.862668709
49:26.8,1.42163E+12,-3.8199065,-1.4166541,3.3699422,5.287258736
49:26.8,1.42163E+12,-7.1364098,2.792443,2.8219318,8.166356705
49:26.8,1.42163E+12,-7.3494167,5.9025254,3.1081367,9.925434281
49:26.8,1.42163E+12,-6.112539,4.943021,1.0349479,7.928915865
49:26.9,1.42163E+12,-5.4233723,3.9474413,-2.565964,7.181882147
49:26.9,1.42163E+12,3.382516,-4.7190866,-12.025094,13.35342947
49:26.9,1.42163E+12,6.183641,-17.387691,-16.867224,25.00144915
49:26.9,1.42163E+12,2.4860303,-12.000395,-7.870783,14.56499406
49:26.9,1.42163E+12,-3.6122882,-2.151925,11.698473,12.43115754
49:27.0,1.42163E+12,-13.342804,-15.255077,12.372671,23.74512119
49:27.0,1.42163E+12,-10.235715,-12.983401,9.021589,18.83421438
49:27.0,1.42163E+12,-8.307724,-3.575315,4.5463457,10.12276714
49:27.0,1.42163E+12,-9.60313,-11.213182,11.076666,18.45665425
49:27.0,1.42163E+12,-7.1221895,-18.14856,12.258159,23.0295088
49:27.1,1.42163E+12,-0.07080276,-19.386335,-9.270372,21.48894587
49:27.1,1.42163E+12,5.926775,-17.554745,-5.9418936,19.45769343
49:27.1,1.42163E+12,6.6075597,-18.40378,1.6108003,19.6202355
49:27.1,1.42163E+12,4.611161,-18.337616,-5.6890697,19.74579652
49:27.1,1.42163E+12,4.545448,-16.268919,-11.72856,20.56448255
49:27.2,1.42163E+12,3.3943415,-12.033925,-8.756491,15.26476465
49:27.2,1.42163E+12,0.35506165,-8.09322,-6.634803,10.47124107
49:27.2,1.42163E+12,-0.20477417,-3.2718961,-7.323221,8.023515586
49:27.2,1.42163E+12,3.0196705,-1.7655785,-5.7534356,6.733327452
49:27.2,1.42163E+12,2.8710296,-0.90696394,-1.0716215,3.195898495
49:27.3,1.42163E+12,0.13516891,0.103734285,-0.17708176,0.245742519
49:27.3,1.42163E+12,-1.2915143,-1.0178833,-0.6673123,1.774655264
49:27.3,1.42163E+12,-1.0452763,-7.492968,-1.2678635,7.671026649
49:27.3,1.42163E+12,2.9650342,-17.447268,-0.49531996,17.70434778
49:27.3,1.42163E+12,-4.2248144,-19.290834,-6.731053,20.86366237
49:27.4,1.42163E+12,-7.7688446,-17.53259,-2.822231,19.38328265
49:27.4,1.42163E+12,-6.9805837,-19.111807,-0.4406836,20.35150898
49:27.4,1.42163E+12,-3.4170942,-19.44202,2.60159,19.91072437
49:27.4,1.42163E+12,0.90501803,-16.981438,6.630312,18.25237879
49:27.4,1.42163E+12,3.1097832,-11.044184,1.877845,11.62630868
49:27.5,1.42163E+12,0.82328796,-6.2188177,2.821782,6.87851367
49:27.5,1.42163E+12,-2.4860303,-2.4019053,2.7610085,4.424100322
49:27.5,1.42163E+12,-6.6795597,1.4715898,2.0549269,7.14176581
49:27.5,1.42163E+12,-7.508536,3.9838157,0.70458484,8.529087887
49:27.6,1.42163E+12,-6.8105373,4.785698,0.043409728,8.323953872
49:27.6,1.42163E+12,-5.2572174,2.2821543,-1.4841636,5.920245319
49:27.6,1.42163E+12,2.1573138,-4.147126,-11.330987,12.2574028
49:27.6,1.42163E+12,6.023474,-16.57563,-16.319664,24.02842446
49:27.6,1.42163E+12,3.146457,-14.854361,-12.763059,19.83552135
49:27.6,1.42163E+12,-2.0210972,-1.5462844,9.420211,9.757879105
49:27.7,1.42163E+12,-9.015902,-11.260035,10.154733,17.64067684
49:27.7,1.42163E+12,-12.8414955,-16.890127,10.762469,23.79098854
49:27.7,1.42163E+12,-8.060139,-6.0496697,4.854854,11.18632878
49:27.7,1.42163E+12,-9.162895,-9.33399,7.7468405,15.20182725
49:27.7,1.42163E+12,-6.9888167,-15.708783,12.77698,21.42103266
49:27.8,1.42163E+12,-2.4667203,-19.054476,-2.7629545,19.41112264
49:27.8,1.42163E+12,5.4286113,-18.467846,-9.371412,21.40921576
49:27.8,1.42163E+12,6.6830025,-18.09632,-1.2609777,19.33208175
49:27.8,1.42163E+12,5.498366,-18.632055,-3.2476466,19.69600748
49:27.9,1.42163E+12,4.867877,-15.028748,-10.908416,19.19773509
49:27.9,1.42163E+12,2.8036697,-12.067455,-9.529932,15.63021554
49:27.9,1.42163E+12,-0.43813887,-8.577763,-6.165828,10.57295695
49:27.9,1.42163E+12,0.0796344,-4.2933717,-7.9830494,9.064682008
49:27.9,1.42163E+12,3.8001475,-2.3306534,-6.682703,8.0331554
49:27.9,1.42163E+12,4.0420446,-1.687441,0.21555176,4.385435467
49:28.0,1.42163E+12,1.3645624,-0.45789778,0.06451584,1.440785624
49:28.0,1.42163E+12,-0.35371444,-1.7324972,-0.7433542,1.918133447
49:28.0,1.42163E+12,0.29219237,-7.08836,-0.31090346,7.101188973
49:28.0,1.42163E+12,3.773054,-17.587826,-0.17633331,17.98884803
49:28.0,1.42163E+12,-3.339705,-19.309994,-7.230564,20.8880481
49:28.1,1.42163E+12,-7.3230715,-18.80734,-3.4447865,20.47461765
49:28.1,1.42163E+12,-5.322781,-19.450104,-0.8457413,20.18300824
49:28.1,1.42163E+12,-1.0789562,-19.563269,2.0872595,19.70386492
49:28.1,1.42163E+12,1.9375708,-16.90779,6.216423,18.11826311
49:28.1,1.42163E+12,3.2491434,-10.059681,2.0438497,10.76714615
49:28.2,1.42163E+12,0.96234876,-6.33303,3.879782,7.48906486
49:28.2,1.42163E+12,-2.4498055,-2.3219714,3.0543983,4.552191466
49:28.2,1.42163E+12,-6.404282,1.6357983,2.5502467,7.084802202
49:28.2,1.42163E+12,-7.773784,4.215983,0.2830614,8.847957623
49:28.2,1.42163E+12,-7.1009336,5.595065,1.1569442,9.114084168
49:28.3,1.42163E+12,-6.0013204,4.483776,0.87088895,7.541786348
49:28.3,1.42163E+12,-3.705694,0.78481793,-1.2463083,3.987654898
49:28.3,1.42163E+12,8.658594,-13.353881,-15.904127,22.49974763
49:28.3,1.42163E+12,6.97759,-18.734142,-18.88967,27.504081
49:28.3,1.42163E+12,2.2656884,-6.2990513,2.5471032,7.162340813
49:28.4,1.42163E+12,-4.8635364,-3.4919386,13.59443,14.85449927
49:28.4,1.42163E+12,-16.480429,-16.839832,12.387191,26.62004851
49:28.4,1.42163E+12,-8.239466,-7.863897,5.344486,12.58146282
49:28.4,1.42163E+12,-7.951914,-4.7580056,5.1087265,10.58161802
49:28.4,1.42163E+12,-9.214239,-15.0961075,13.774206,22.41703399
49:28.5,1.42163E+12,-6.655909,-18.96556,8.848699,21.96117175
49:28.5,1.42163E+12,-0.13217515,-19.497404,-11.691887,22.73469715
49:28.5,1.42163E+12,5.7456517,-18.333574,-4.697531,19.77875746
49:28.5,1.42163E+12,5.710026,-18.800156,-0.5427713,19.65565728
49:28.5,1.42163E+12,5.7540345,-17.519567,-8.118518,20.14831197
49:28.6,1.42163E+12,5.377717,-13.730348,-10.857073,18.31169928
49:28.6,1.42163E+12,3.1838791,-10.559491,-7.938741,13.58909655
49:28.6,1.42163E+12,0.57166123,-6.60232,-6.2122316,9.0834601
49:28.6,1.42163E+12,2.2643414,-3.0537996,-9.184751,9.940451947
49:28.6,1.42163E+12,4.2299037,-1.5344591,-2.5795858,5.186609002
49:28.7,1.42163E+12,2.4559429,-0.32272887,0.40850052,2.510514315
49:28.7,1.42163E+12,-0.12888199,-0.24174729,-0.92283094,0.962636621
49:28.7,1.42163E+12,-1.3847704,-1.4061759,-2.184108,2.943679242
49:28.7,1.42163E+12,-1.0244696,-6.344257,-1.1546988,6.529354039
49:28.7,1.42163E+12,3.9149587,-15.883321,-0.42691222,16.36426111
49:28.8,1.42163E+12,1.2243041,-19.078127,-5.226681,19.81898193
49:28.8,1.42163E+12,-5.9878483,-19.512672,-3.6000137,20.72580021
49:28.8,1.42163E+12,-8.311466,-19.5718,-2.7830126,21.44483578
49:28.8,1.42163E+12,-3.566783,-19.43723,6.1417284,20.69417016
49:28.9,1.42163E+12,2.1195922,-18.794167,6.2695622,19.92538066
49:28.9,1.42163E+12,3.8450541,-11.989168,2.7316694,12.88357901
49:28.9,1.42163E+12,2.3730154,-8.6136875,2.3903792,9.248823015
49:28.9,1.42163E+12,-1.3196558,-4.6901965,2.9301567,5.685530136
49:28.9,1.42163E+12,-5.808222,0.4445755,1.8890717,6.123861695
49:29.0,1.42163E+12,-7.9111986,2.6473947,-0.6658154,8.368934946
49:29.0,1.42163E+12,-8.06433,4.5074267,-0.8569679,9.278184509
49:29.0,1.42163E+12,-7.5625734,3.7178187,0.18381774,8.429026117
49:29.0,1.42163E+12,-5.5818925,1.5495776,-0.49981064,5.814509893
49:29.0,1.42163E+12,6.3301864,-7.5624237,-15.214511,18.13126739
49:29.1,1.42163E+12,7.66511,-17.946331,-15.163917,24.71374287
49:29.1,1.42163E+12,1.7817448,-11.52169,-9.013656,14.73668719
49:29.1,1.42163E+12,-0.7348219,1.9935544,11.145972,11.34666974
49:29.1,1.42163E+12,-7.8005786,-11.206146,8.30518,15.98132502
49:29.1,1.42163E+12,-15.0574875,-18.366657,11.72362,26.48594505
49:29.1,1.42163E+12,-7.375313,-5.3241286,6.570586,11.22114912
49:29.2,1.42163E+12,-7.437883,-9.171877,7.6904078,14.09211848
49:29.2,1.42163E+12,-6.998846,-14.773678,13.134137,20.97023991
49:29.2,1.42163E+12,-4.4598255,-18.853146,4.113596,19.80537376
49:29.2,1.42163E+12,4.3152266,-19.012413,-11.289074,22.52856455
49:29.2,1.42163E+12,6.7970653,-18.626665,-2.1333637,19.94251705
49:29.3,1.42163E+12,6.008206,-18.66828,-2.4804919,19.76755062
49:29.3,1.42163E+12,5.1653085,-16.543747,-8.884175,19.4757424
49:29.3,1.42163E+12,3.348387,-12.346625,-9.745634,16.08192235
49:29.3,1.42163E+12,1.0755135,-8.051008,-7.158414,10.82674236
49:29.3,1.42163E+12,-0.084424436,-4.1959248,-8.270901,9.274735347
49:29.4,1.42163E+12,2.309697,-1.9062859,-7.1729336,7.773004734
49:29.4,1.42163E+12,3.1759455,-0.57660097,0.7276369,3.308859918
49:29.4,1.42163E+12,2.0140617,-0.14834152,1.1383827,2.318267653
49:29.4,1.42163E+12,2.0071762,-1.2250525,0.24069947,2.363777942
49:29.4,1.42163E+12,2.186054,-6.0396404,-1.3802797,6.569723
49:29.5,1.42163E+12,4.7316604,-15.899936,0.3221301,16.59217716
49:29.5,1.42163E+12,-1.0984159,-19.080372,-3.9924974,19.52452685
49:29.5,1.42163E+12,-8.033943,-19.512972,-2.7783723,21.28425871
49:29.5,1.42163E+12,-8.813373,-17.750238,-3.4298177,20.1124375
49:29.5,1.42163E+12,-2.9312046,-19.150726,-2.1962328,19.49783848
49:29.6,1.42163E+12,2.3221211,-19.522552,6.4421535,20.68873183
49:29.6,1.42163E+12,2.669848,-14.887741,4.5708947,15.80082272
49:29.6,1.42163E+12,2.4071443,-8.945548,3.1702573,9.791205444
49:29.6,1.42163E+12,-0.27318192,-6.1296034,3.15454,6.899115075
49:29.6,1.42163E+12,-4.36148,-1.4187497,3.3563204,5.683330461
49:29.7,1.42163E+12,-7.6011934,2.6403594,1.6040643,8.205038766
49:29.7,1.42163E+12,-8.2936535,5.281467,-0.43739045,9.842250376
49:29.7,1.42163E+12,-7.5910144,6.5147524,1.1187735,10.06564219
49:29.7,1.42163E+12,-5.7348742,4.5614643,2.0227437,7.601791284
49:29.7,1.42163E+12,0.6797365,-0.7831714,-1.1032059,1.514087979
49:29.8,1.42163E+12,11.524983,-14.54196,-16.666042,24.94094605
49:29.8,1.42163E+12,4.78959,-18.128202,-18.189425,26.12330496
49:29.9,1.42163E+12,0.7734416,-4.942123,3.9064264,6.346885762
49:29.9,1.42163E+12,-6.2932134,-6.2641735,10.484797,13.73955504
49:29.9,1.42163E+12,-15.241755,-17.762962,10.55994,25.67773836
49:29.9,1.42163E+12,-8.059839,-6.21777,6.291716,11.96692771
49:29.9,1.42163E+12,-10.437196,-4.983587,5.940247,13.00222035
49:29.9,1.42163E+12,-9.010063,-16.86438,13.641882,23.48807128
49:29.9,1.42163E+12,-6.1623855,-19.208206,11.645483,23.29264792
49:29.9,1.42163E+12,3.0600865,-19.530487,-13.008698,23.66495881
49:30.0,1.42163E+12,8.767867,-18.826052,-3.7779937,21.1085045
49:30.0,1.42163E+12,7.628137,-18.540146,-3.2970438,20.31738137
49:30.0,1.42163E+12,5.6024,-15.76791,-10.385104,19.69426964
49:30.0,1.42163E+12,3.0404773,-12.214001,-8.913814,15.4234368
49:30.0,1.42163E+12,1.8753003,-8.491242,-5.38116,10.2261833
49:30.1,1.42163E+12,0.13906083,-3.274291,-6.366411,7.160412592
49:30.1,1.42163E+12,1.6658858,-0.7104227,-8.823551,9.00749289
49:30.1,1.42163E+12,2.5551865,-0.26749375,-1.0750644,2.785012463
49:30.1,1.42163E+12,0.24623795,-0.24429199,1.0352472,1.091809722
49:30.2,1.42163E+12,0.522713,-0.2547702,1.0786569,1.225413172
49:30.2,1.42163E+12,0.30057496,-2.863246,-1.4584172,3.22730595
49:30.2,1.42163E+12,0.9798624,-9.386381,-2.350113,9.725600738
49:30.2,1.42163E+12,5.7453523,-17.591867,-0.003442841,18.5062927
49:30.2,1.42163E+12,-0.44277924,-19.310593,-4.1921825,19.76535984
49:30.2,1.42163E+12,-5.4851933,-19.544407,-2.8629465,20.50043056
49:30.3,1.42163E+12,-5.460046,-19.561172,-1.7914746,20.38776431
49:30.3,1.42163E+12,1.3624667,-19.575094,4.276008,20.08294961
49:30.3,1.42163E+12,0.7101233,-17.959803,6.625522,19.15610453
49:30.3,1.42163E+12,2.11585,-13.051209,3.6375856,13.71287375
49:30.3,1.42163E+12,0.27931917,-6.571185,2.2653892,6.956326597
49:30.4,1.42163E+12,-2.9744647,-2.2233267,2.3828948,4.41234739
49:30.4,1.42163E+12,-7.9185333,1.7324972,2.1480331,8.385628323
49:30.4,1.42163E+12,-8.9795265,4.554429,0.23246658,10.07118466
49:30.4,1.42163E+12,-7.9602966,5.3923864,1.060844,9.673135119
49:30.4,1.42163E+12,-6.067782,3.7741017,1.4759308,7.296587817
49:30.5,1.42163E+12,0.87627774,-0.26090744,-4.5277843,4.61917374
49:30.5,1.42163E+12,8.0950165,-14.27746,-17.08158,23.68872161
49:30.5,1.42163E+12,4.579726,-17.00868,-15.834672,23.6855636
49:30.5,1.42163E+12,0.5610333,-2.4715104,7.276668,7.705388972
49:30.5,1.42163E+12,-3.4256263,1.8589842,13.068873,13.637675
49:30.6,1.42163E+12,-13.648618,-14.000985,15.75369,25.10958189
49:30.6,1.42163E+12,-9.836346,-16.128511,1.8103354,18.97787881
49:30.6,1.42163E+12,-3.7947588,-5.869744,-3.4449363,7.792411378
49:30.6,1.42163E+12,-5.4422326,-10.782228,9.397608,15.30324712
49:30.6,1.42163E+12,-3.3039293,-16.751814,10.803035,20.20506833
49:30.7,1.42163E+12,-0.27153534,-19.196232,-0.24803421,19.19975457
49:30.7,1.42163E+12,4.9879274,-18.244211,-7.852072,20.4789084
49:30.7,1.42163E+12,5.6262,-19.226618,-2.3079007,20.16540036
49:30.7,1.42163E+12,4.7969246,-17.62869,-7.4821906,19.74245104
49:30.7,1.42163E+12,4.170627,-13.019775,-10.386302,17.16927313
49:30.8,1.42163E+12,2.1725821,-9.934092,-8.690628,13.37659568
49:30.8,1.42163E+12,0.9216335,-5.5158796,-5.1259403,7.586145268
49:30.8,1.42163E+12,2.3189776,-2.210603,-9.463321,9.990939249
49:30.8,1.42163E+12,5.1789303,-0.67898804,-1.7562977,5.510619332
49:30.8,1.42163E+12,3.3497343,-0.51687515,0.87148774,3.499624363
49:30.9,1.42163E+12,1.3241464,-1.4780264,0.33395553,2.012325029
49:30.9,1.42163E+12,0.619861,-2.797233,0.47945297,2.904929477
49:30.9,1.42163E+12,1.4193485,-8.490494,-0.20821701,8.610829975
49:30.9,1.42163E+12,5.45795,-17.659975,-0.8876541,18.50545501
49:30.9,1.42163E+12,-1.9734961,-19.319874,-4.742438,19.99107142
49:31.0,1.42163E+12,-6.4828687,-19.545605,-2.4399261,20.73671866
49:31.0,1.42163E+12,-7.448361,-18.95209,-2.7036777,20.54190035
49:31.0,1.42163E+12,-0.3556604,-19.421513,5.9635987,20.31960066
49:31.0,1.42163E+12,0.98944247,-19.261196,5.1697993,19.96746084
49:31.0,1.42163E+12,2.6641598,-12.599449,3.1488519,13.25741795
49:31.1,1.42163E+12,1.0205777,-7.093,2.6773324,7.649858601
49:31.1,1.42163E+12,-1.2093352,-3.032544,2.5776398,4.159692498
49:31.1,1.42163E+12,-5.797594,1.4043796,1.3316308,6.112087928
49:31.2,1.42163E+12,-8.08858,3.680696,-0.2481839,8.890120624
49:31.2,1.42163E+12,-8.034692,4.5581713,0.8370593,9.275444432
49:31.2,1.42163E+12,-6.438112,3.58265,1.5621514,7.531599043
49:31.2,1.42163E+12,-4.6913943,1.1463162,1.3504916,5.014683327
49:31.2,1.42163E+12,6.0123973,-9.149424,-13.497432,17.37934266
49:31.2,1.42163E+12,7.4736586,-17.98016,-16.757952,25.68989454
49:31.2,1.42163E+12,3.4281712,-8.581355,-3.8640647,10.01613735
49:31.3,1.42163E+12,-1.509012,3.5473232,12.434193,13.01805572
49:31.3,1.42163E+12,-10.099498,-12.590468,12.241544,20.25771813
49:31.3,1.42163E+12,-9.577085,-15.880626,7.6914554,20.07668612
49:31.3,1.42163E+12,-5.509144,-4.2906775,3.4560132,7.791316208
49:31.3,1.42163E+12,-6.37659,-10.112072,6.6957264,13.70210393
49:31.4,1.42163E+12,-4.6144543,-16.414865,8.138126,18.89365174
49:31.4,1.42163E+12,-3.0163774,-19.150427,-3.744613,19.74486043
49:31.4,1.42163E+12,4.0914416,-17.29279,-4.3948607,18.30560791
49:31.5,1.42163E+12,6.326594,-18.221159,-0.1803749,19.2890892
49:31.5,1.42163E+12,6.3854213,-18.644777,-3.986959,20.10714193
49:31.5,1.42163E+12,5.7062836,-14.534176,-9.202863,18.12447605
49:31.5,1.42163E+12,4.3983035,-11.024425,-8.271949,14.46748632
49:31.5,1.42163E+12,2.142345,-8.397537,-7.689809,11.58626049
49:31.5,1.42163E+12,0.036973115,-4.6078677,-6.0843973,7.6324113
49:31.5,1.42163E+12,2.2556593,-1.6356486,-6.1878324,6.786207706
49:31.6,1.42163E+12,4.971462,-0.36434233,-1.2820839,5.147030103
49:31.6,1.42163E+12,2.7494824,-0.30386811,-0.0291893,2.766376929
49:31.6,1.42163E+12,0.4340973,-1.1196716,-0.34787658,1.250249204
49:31.6,1.42163E+12,0.29533586,-5.339696,-0.7247928,5.396749137
49:31.6,1.42163E+12,4.7307625,-15.0624275,0.9340576,15.81547659
49:31.7,1.42163E+12,1.3522879,-18.96646,-3.8220022,19.39492171
49:31.7,1.42163E+12,-5.4167857,-19.497555,-2.8171418,20.43116507
49:31.7,1.42163E+12,-7.056626,-19.569855,-2.170786,20.91620202
49:31.7,1.42163E+12,-2.8219318,-19.337986,-1.2156221,19.58057044
49:31.7,1.42163E+12,2.4254065,-19.548,5.3995714,20.42455072
49:31.8,1.42163E+12,2.2793102,-15.8415575,4.2745113,16.56567674
49:31.8,1.42163E+12,2.4891737,-8.514594,2.742896,9.285352721
49:31.8,1.42163E+12,0.23396347,-5.6270986,3.8314326,6.811670377
49:31.8,1.42163E+12,-3.747008,-0.50100815,2.7966344,4.702365584
49:31.8,1.42163E+12,-7.759564,2.6575735,0.16151413,8.203634389
49:31.9,1.42163E+12,-8.697064,4.19323,-1.6527132,9.795588853
49:31.9,1.42163E+12,-7.6942997,4.1251216,-0.8367599,8.770350234
49:31.9,1.42163E+12,-6.0763144,1.8146764,-0.17453705,6.343903397
49:31.9,1.42163E+12,4.9503555,-4.846322,-10.162067,12.29879922
49:31.9,1.42163E+12,8.173004,-17.162111,-16.265625,25.01812553
49:32.0,1.42163E+12,2.983446,-12.276122,-10.6608305,16.53049994
49:32.0,1.42163E+12,-2.6473947,2.945874,12.003838,12.64037179
49:32.0,1.42163E+12,-9.861194,-12.465328,9.498797,18.51633586
49:32.0,1.42163E+12,-11.640992,-18.041382,9.037157,23.2953722
49:32.0,1.42163E+12,-6.804849,-4.8912287,3.2970438,9.005586373
49:32.1,1.42163E+12,-7.789801,-9.617051,8.912466,15.25125306
49:32.1,1.42163E+12,-4.5237427,-16.819324,11.836935,21.05865471
49:32.1,1.42163E+12,-1.2528946,-19.205511,-2.6457481,19.42733591
49:32.1,1.42163E+12,5.9198895,-17.522411,-8.482261,20.34769595
49:32.1,1.42163E+12,7.2606516,-17.57705,-2.0011885,19.1226176
49:32.2,1.42163E+12,5.9282722,-18.332678,-3.160378,19.52484271
49:32.2,1.42163E+12,5.231022,-15.459702,-8.665929,18.47875273
49:32.2,1.42163E+12,4.3498044,-11.57483,-9.405242,15.53563854
49:32.2,1.42163E+12,2.6511369,-9.298663,-7.6278377,12.31574474
49:32.2,1.42163E+12,0.11301498,-4.47689,-8.131091,9.282777457
49:32.3,1.42163E+12,2.347718,-2.1737795,-7.7181,8.355008362
49:32.3,1.42163E+12,3.0201197,0.15163468,1.3566289,3.314296011
49:32.3,1.42163E+12,1.9013461,0.37287462,2.3836432,3.07179221
49:32.3,1.42163E+12,1.3853691,-0.33889526,-0.717458,1.596509794
49:32.3,1.42163E+12,0.73078036,-4.1650887,-2.9764106,5.171172389
49:32.4,1.42163E+12,3.238366,-11.934233,0.67734146,12.38433378
49:32.4,1.42163E+12,5.522765,-18.476976,-1.7067508,19.3600768
49:32.4,1.42163E+12,-2.6644592,-19.430943,-3.9197488,20.00063297
49:32.5,1.42163E+12,-6.350095,-19.560722,-2.88046,20.76638152
49:32.5,1.42163E+12,-3.513344,-19.524797,-1.6146922,19.90398239
49:32.5,1.42163E+12,2.919978,-19.573446,4.98194,20.40749338
49:32.5,1.42163E+12,3.100203,-17.232315,4.8608418,18.17117833
49:32.5,1.42163E+12,2.735262,-10.611882,3.042573,11.37325583
49:32.5,1.42163E+12,0.787662,-7.5538917,3.0246103,8.174959248
49:32.5,1.42163E+12,-2.950664,-3.1569352,2.9912298,5.255484147
49:32.6,1.42163E+12,-7.7695932,0.8813672,1.1551479,7.904287021
49:32.6,1.42163E+12,-9.98289,3.6964133,-0.407303,10.65304932
49:32.6,1.42163E+12,-9.25226,4.5388613,-0.40026763,10.31337923
49:32.6,1.42163E+12,-7.5351806,3.814817,0.085621946,8.446248074
49:32.6,1.42163E+12,-2.7747798,0.10074051,-1.44749,3.131258356
49:32.7,1.42163E+12,8.31955,-11.639346,-15.726447,21.26053675
49:32.7,1.42163E+12,5.7472982,-17.490828,-16.502283,24.72419554
49:32.7,1.42163E+12,2.3333478,-8.169861,-1.719624,8.668808881
49:32.8,1.42163E+12,-0.6185138,-2.4304957,15.567028,15.76775918
49:32.8,1.42163E+12,-11.690839,-17.116756,10.535392,23.2519577
49:32.8,1.42163E+12,-6.895411,-10.778337,7.0007915,14.58527761
49:32.8,1.42163E+12,-8.277786,-2.5408163,4.7702804,9.88600342
49:32.8,1.42163E+12,-8.592133,-11.491603,11.907438,18.64587806
49:32.8,1.42163E+12,-5.641768,-17.982405,9.399853,21.06071395
49:32.8,1.42163E+12,-0.44936553,-19.363733,-7.2654414,20.68677654
49:32.9,1.42163E+12,6.4438,-16.862135,-5.4134927,18.84569071
49:32.9,1.42163E+12,6.8388286,-18.159937,-1.4156063,19.45653694
49:32.9,1.42163E+12,5.953719,-18.381924,-4.542903,19.84892611
49:32.9,1.42163E+12,4.580924,-16.038548,-8.868757,18.89112854
49:32.9,1.42163E+12,4.4867697,-10.740016,-8.1899185,14.23214007
49:33.0,1.42163E+12,4.0454874,-7.556287,-7.1022806,11.13129962
49:33.0,1.42163E+12,0.7168593,-3.387306,-5.729186,6.694124395
49:33.0,1.42163E+12,1.7001644,-2.143243,-7.4875793,7.971693253
49:33.0,1.42163E+12,3.6958146,-0.46523255,-0.95351714,3.845085411
49:33.0,1.42163E+12,2.8919861,-0.6147716,0.5574408,3.008698717
49:33.1,1.42163E+12,1.2111315,-1.5925384,-0.84589094,2.17222226
49:33.1,1.42163E+12,0.43439665,-4.815486,-1.0921289,4.956848939
49:33.1,1.42163E+12,3.1370265,-13.74352,0.8972342,14.12551969
49:33.1,1.42163E+12,3.0496082,-18.770218,-3.0894256,19.26566232
49:33.1,1.42163E+12,-3.5702257,-19.47091,-3.6729121,20.1333835
49:33.2,1.42163E+12,-5.8188496,-19.566113,-2.8629465,20.61281764
49:33.2,1.42163E+12,-3.805686,-19.51896,-3.106939,20.12774491
49:33.2,1.42163E+12,1.8776953,-19.572699,4.7276187,20.22292423
49:33.2,1.42163E+12,1.6780106,-17.741856,4.3628273,18.34730051
49:33.2,1.42163E+12,2.321672,-11.269316,2.7397528,11.82767472
49:33.3,1.42163E+12,0.6595285,-7.9074564,3.205584,8.557956143
49:33.3,1.42163E+12,-1.9257454,-3.4576597,3.5726206,5.331746796
49:33.3,1.42163E+12,-6.2776456,1.1524534,2.4161255,6.824561931
49:33.3,1.42163E+12,-8.4150505,3.4298177,-0.13097763,9.08811749
49:33.3,1.42163E+12,-8.295749,5.5366864,-0.41044647,9.982124727
49:33.4,1.42163E+12,-7.0826716,5.161716,0.7659572,8.797399587
49:33.4,1.42163E+12,-1.8239571,0.34413436,-1.6793578,2.503096199
49:33.4,1.42163E+12,7.755672,-11.640543,-14.627132,20.23871735
49:33.4,1.42163E+12,5.9242306,-18.002165,-18.5141,26.49427017
49:33.4,1.42163E+12,0.84484315,-7.2232294,3.5507662,8.09300584
49:33.5,1.42163E+12,-3.3467405,3.1320868,14.292579,15.00961206
49:33.5,1.42163E+12,-10.137369,-10.886711,12.079281,19.16235257
49:33.5,1.42163E+12,-12.319981,-17.2398,6.225554,22.08506641
49:33.5,1.42163E+12,-4.7792616,-6.015391,-1.5441889,7.836503664
49:33.5,1.42163E+12,-5.705835,-9.830507,8.721165,14.32669326
49:33.6,1.42163E+12,-2.391876,-17.642761,14.023139,22.66355034
49:33.6,1.42163E+12,-0.09071136,-19.317478,-2.5595274,19.48651753
49:33.6,1.42163E+12,6.2254043,-18.084942,-7.1961355,20.43538969
49:33.6,1.42163E+12,6.5758257,-17.726439,-2.6435027,19.09073675
49:33.6,1.42163E+12,5.8790245,-18.059046,-6.7903295,20.1692996
49:33.7,1.42163E+12,4.445156,-15.293996,-10.178983,18.90178353
49:33.7,1.42163E+12,1.877845,-10.116263,-9.109906,13.74246944
49:33.7,1.42163E+12,0.93345886,-6.087092,-5.413942,8.199683069
49:33.7,1.42163E+12,0.49936157,-2.697241,-6.3339286,6.902399764
49:33.8,1.42163E+12,3.8161643,-0.89334226,-5.220993,6.528394769
49:33.8,1.42163E+12,4.893474,-0.0690065,-0.3568579,4.906953968
49:33.8,1.42163E+12,1.4069242,-1.3061838,-0.47870454,1.978562574
49:33.8,1.42163E+12,-1.131497,-1.8384769,-2.481839,3.289347594
49:33.8,1.42163E+12,-1.3901591,-5.3217335,-1.1597883,5.62125419
49:33.8,1.42163E+12,2.9379406,-14.831608,0.64036834,15.13334604
49:33.9,1.42163E+12,3.3177009,-18.935024,-5.048851,19.87544137
49:33.9,1.42163E+12,-3.5158887,-19.493214,-3.9059775,20.18919329
49:33.9,1.42163E+12,-6.3993425,-19.569256,-2.409689,20.72954331
49:33.9,1.42163E+12,2.317331,-19.579584,6.3306355,20.70765748
49:33.9,1.42163E+12,3.4102085,-17.236057,5.669011,18.46209275
49:34.0,1.42163E+12,3.8779857,-11.852054,3.1630723,12.86526267
49:34.0,1.42163E+12,1.8318906,-8.852591,3.6265087,9.740418673
49:34.0,1.42163E+12,-1.2347822,-5.3408937,3.6247125,6.571786158
49:34.0,1.42163E+12,-6.3445563,-0.4076024,2.242337,6.741484227
49:34.1,1.42163E+12,-8.656349,1.6223264,0.39502853,8.815915636
49:34.1,1.42163E+12,-8.343799,3.1799872,0.42511597,8.939352545
49:34.1,1.42163E+12,-7.801626,2.7634034,-0.59980273,8.298284757
49:34.1,1.42163E+12,-3.3636553,0.10523117,-4.1399407,5.33520005
49:34.1,1.42163E+12,5.570067,-9.370364,-16.22491,19.54679187
49:34.1,1.42163E+12,4.4051895,-16.950151,-17.428257,24.70743725
49:34.2,1.42163E+12,0.03996689,-2.2435346,10.01657,10.26482924
49:34.2,1.42163E+12,-4.1766148,-9.164692,10.400223,14.47758022
49:34.2,1.42163E+12,-11.40673,-18.137333,9.82482,23.5712415
49:34.2,1.42163E+12,-5.9044714,-8.563692,5.538183,11.78435718
49:34.2,1.42163E+12,-7.4354877,-6.34291,8.93013,13.23881439
49:34.3,1.42163E+12,-6.4854136,-14.890585,14.390026,21.69937694
49:34.3,1.42163E+12,-3.3382082,-18.93637,5.831573,20.09320747
49:34.3,1.42163E+12,5.547314,-19.29787,-13.0313015,23.93732019
49:34.3,1.42163E+12,8.700807,-18.377733,-5.8260345,21.15154346
49:34.3,1.42163E+12,6.804101,-18.287172,-3.0639784,19.75106108
49:34.4,1.42163E+12,5.7812777,-15.8150625,-9.576785,19.37147864
49:34.4,1.42163E+12,3.3510814,-11.595188,-9.2184305,15.18741559
49:34.4,1.42163E+12,1.9252963,-7.8206367,-7.1301227,10.75675481
49:34.4,1.42163E+12,0.9008267,-4.079317,-8.55486,9.520396292
49:34.4,1.42163E+12,3.165168,-0.86579955,-6.0207796,6.856944241
49:34.5,1.42163E+12,3.2407608,0.5519023,0.26914033,3.298418292
49:34.5,1.42163E+12,1.1958632,0.46164,-1.0774595,1.674550464
49:34.5,1.42163E+12,0.12933105,-0.50894165,-1.7679734,1.844309645
49:34.5,1.42163E+12,1.3102254,-5.3971767,-0.05957611,5.554255688
49:34.5,1.42163E+12,6.1450214,-15.4989195,-1.0316547,16.70455342
49:34.6,1.42163E+12,4.736301,-19.025885,-5.7020926,20.41888115
49:34.6,1.42163E+12,-3.5706747,-19.505638,-4.825665,20.40849515
49:34.6,1.42163E+12,-4.9238605,-19.570902,-2.5405169,20.34007948
49:34.6,1.42163E+12,0.7958949,-19.579733,5.2283278,20.2813906
49:34.6,1.42163E+12,3.186274,-16.90749,4.623735,17.81556863
49:34.7,1.42163E+12,3.5765126,-10.381212,2.513573,11.26406029
49:34.7,1.42163E+12,0.8825647,-7.3630385,4.064348,8.456487514
49:34.7,1.42163E+12,-1.8074913,-4.702621,4.4595265,6.728227528
49:34.7,1.42163E+12,-6.4949937,-0.3266208,3.4515226,7.362379545
49:34.7,1.42163E+12,-9.181008,3.1096334,-0.38799316,9.701096148
49:34.8,1.42163E+12,-9.328002,5.9002805,-2.2658381,11.26760638
49:34.8,1.42163E+12,-8.673713,5.2479367,-0.123493195,10.13851012
49:34.8,1.42163E+12,-3.827391,-0.8970845,-0.53169435,3.966910807
49:34.8,1.42163E+12,6.0743685,-10.597213,-12.8310175,17.71535735
49:34.8,1.42163E+12,6.6416883,-18.359173,-17.950521,26.52154711
49:34.9,1.42163E+12,2.8889923,-7.835306,-0.94588304,8.4043436
49:34.9,1.42163E+12,-2.5623715,4.8318024,14.549145,15.54315548
49:34.9,1.42163E+12,-8.5574045,-11.803854,10.485994,17.95873635
49:34.9,1.42163E+12,-10.820698,-18.508263,5.911956,22.23948129
49:34.9,1.42163E+12,-4.0200405,-6.399193,1.9327807,7.800387036
49:35.0,1.42163E+12,-5.4365444,-12.50814,8.897198,16.28403247
49:35.0,1.42163E+12,-4.368366,-14.917829,10.267448,18.62913664
49:35.0,1.42163E+12,-2.7292745,-18.815424,-0.73572004,19.02657099
49:35.0,1.42163E+12,6.5484324,-18.94655,-8.393945,21.73274112
49:35.1,1.42163E+12,8.431966,-18.947298,-3.9276824,21.10745937
49:35.1,1.42163E+12,7.70837,-17.281115,-6.623576,20.04813365
49:35.1,1.42163E+12,5.6751485,-13.933925,-9.455537,17.76988341
49:35.1,1.42163E+12,2.1915925,-10.067764,-8.571177,13.402538
49:35.1,1.42163E+12,-0.4285588,-5.54462,-6.268215,8.379558036
49:35.1,1.42163E+12,0.07738907,-2.5743465,-8.332273,8.721239724
49:35.2,1.42163E+12,2.8592043,-0.398172,-4.299509,5.178741914
49:35.2,1.42163E+12,2.8827055,-0.19938537,0.3528163,2.911052192
49:35.2,1.42163E+12,0.6658154,-0.58902514,-0.14624588,0.900915434
49:35.2,1.42163E+12,-0.028590545,-2.5209076,-0.9653426,2.699570129
49:35.2,1.42163E+12,2.588567,-10.038425,-0.775687,10.39578501
49:35.3,1.42163E+12,7.1515284,-18.025517,-0.10837463,19.3926627
49:35.3,1.42163E+12,-0.86355424,-19.369572,-4.430786,19.88863771
49:35.3,1.42163E+12,-4.978946,-19.552341,-3.2304323,20.43329721
49:35.4,1.42163E+12,-5.6814356,-19.577188,-3.0606852,20.61341297
49:35.4,1.42163E+12,2.0466938,-19.580631,8.144713,21.30554894
49:35.4,1.42163E+12,3.099754,-17.583336,5.1452503,18.58105972
49:35.4,1.42163E+12,3.2479458,-11.352392,3.19301,12.23197731
49:35.4,1.42163E+12,1.0621911,-7.7507324,2.8431876,8.323810329
49:35.4,1.42163E+12,-1.5149995,-5.1702485,3.3254845,6.331314255
49:35.4,1.42163E+12,-5.649851,0.17827927,1.4558725,5.837136674
49:35.5,1.42163E+12,-8.109836,2.54875,-0.7572752,8.534578621
49:35.5,1.42163E+12,-7.6716967,3.3928444,-0.61537033,8.411004935
49:35.5,1.42163E+12,-7.534282,2.8490255,0.5019063,8.070579997
49:35.5,1.42163E+12,-2.9568014,-0.6221063,-2.2722747,3.780598244
49:35.5,1.42163E+12,5.82349,-10.137968,-15.421231,19.35215224
49:35.6,1.42163E+12,4.451443,-15.2439995,-14.017301,21.18205828
49:35.6,1.42163E+12,-1.3765374,1.1123369,11.955488,12.08577022
49:35.6,1.42163E+12,-3.7426672,-2.0281324,12.295132,13.01119325
49:35.6,1.42163E+12,-12.337194,-16.486715,10.437046,23.08571109
49:35.6,1.42163E+12,-5.9674907,-14.07044,5.1706977,16.13456977
49:35.7,1.42163E+12,-3.7940104,-6.88628,4.8653326,9.245908742
49:35.7,1.42163E+12,-4.9802933,-12.591516,8.941506,16.22652539
49:35.7,1.42163E+12,-4.045787,-17.85427,6.2162733,19.33353055
49:35.7,1.42163E+12,2.141297,-19.34622,-8.639434,21.29556764
49:35.7,1.42163E+12,9.058263,-18.33612,-7.9924793,21.95780387
49:35.8,1.42163E+12,7.9255686,-18.767075,-4.185147,20.79743246
49:35.8,1.42163E+12,5.793852,-15.387102,-6.9974985,17.86887277
49:35.8,1.42163E+12,3.8832247,-11.707603,-9.714349,15.70082732
49:35.8,1.42163E+12,1.8227595,-7.6040373,-7.032526,10.5166657
49:35.8,1.42163E+12,0.004041595,-5.0129256,-4.885241,6.999644208
49:35.9,1.42163E+12,1.1820918,-2.233206,-7.305708,7.730324666
49:35.9,1.42163E+12,3.5890865,-0.22752686,-2.1766236,4.203688936
49:35.9,1.42163E+12,2.1978796,0.11256592,1.2573853,2.534632836
49:35.9,1.42163E+12,-0.61507094,-0.50011003,-1.4810202,1.679834259
49:35.9,1.42163E+12,-1.7865349,-3.2480955,-1.8895208,4.160783602
49:36.0,1.42163E+12,1.6790584,-12.438983,-0.5275031,12.56287366
49:36.0,1.42163E+12,5.909561,-18.481617,-1.4193485,19.45527251
49:36.0,1.42163E+12,-2.0996838,-19.431541,-3.841312,19.91856259
49:36.0,1.42163E+12,-5.7288866,-19.560873,-4.397705,20.85156357
49:36.0,1.42163E+12,-3.5663338,-19.578386,-2.4089406,20.04582076
49:36.1,1.42163E+12,3.9589672,-19.580782,8.089178,21.55261575
49:36.1,1.42163E+12,4.097579,-15.227983,3.0543983,16.06271985
49:36.1,1.42163E+12,3.9631586,-10.244396,2.943479,11.37182237
49:36.1,1.42163E+12,0.5628296,-7.4982076,3.4423914,8.269821819
49:36.1,1.42163E+12,-3.4389486,-2.8092082,3.5860927,5.707721002
49:36.2,1.42163E+12,-6.9066377,1.4491365,0.837209,7.106515308
49:36.2,1.42163E+12,-8.546477,2.957849,-0.40430924,9.052878315
49:36.2,1.42163E+12,-7.964039,3.617677,2.3156846,9.048530225
49:36.2,1.42163E+12,-6.840625,2.7158024,1.2332854,7.462621922
49:36.2,1.42163E+12,-3.0698164,-0.07723938,-0.83795744,3.18306634
49:36.3,1.42163E+12,3.886967,-11.788586,-15.719411,20.02945717
49:36.3,1.42163E+12,4.867129,-16.774267,-14.458134,22.6738311
49:36.3,1.42163E+12,0.9068143,0.48244676,8.666827,8.727482873
49:36.4,1.42163E+12,-2.816992,-5.911507,10.34394,12.2424856
49:36.4,1.42163E+12,-11.455678,-17.650995,9.691297,23.16703305
49:36.4,1.42163E+12,-4.256249,-8.811576,6.082751,11.52212597
49:36.4,1.42163E+12,-5.6511984,-6.9250493,7.945178,11.95902189
49:36.4,1.42163E+12,-6.184689,-14.353801,12.165502,19.80609553
49:36.4,1.42163E+12,-3.6265087,-18.866766,5.0810337,19.87267793
49:36.4,1.42163E+12,4.0637493,-18.867065,-10.24305,21.84949138
49:36.5,1.42163E+12,7.20362,-17.582138,-5.1491423,19.68596922
49:36.5,1.42163E+12,6.177055,-17.953066,-2.0270846,19.09391681
49:36.5,1.42163E+12,4.5535307,-15.2014885,-7.250323,17.44669247
49:36.5,1.42163E+12,3.156486,-11.706556,-10.189012,15.83738687
49:36.5,1.42163E+12,2.849774,-8.581804,-7.7689943,11.92165442
49:36.6,1.42163E+12,1.6277151,-5.085225,-6.77566,8.626618004
49:36.6,1.42163E+12,2.609224,-2.6619146,-7.9469743,8.777712672
49:36.6,1.42163E+12,4.0665936,-0.5755531,-2.1002824,4.612985046
49:36.6,1.42163E+12,1.6664845,-0.26599684,1.2229569,2.084118156
49:36.6,1.42163E+12,0.19564316,-0.2746788,0.8152048,0.882203806
49:36.7,1.42163E+12,-0.40266266,-1.1922706,-0.5430707,1.370610151
49:36.7,1.42163E+12,0.85427356,-7.6911564,-1.1015593,7.816463585
49:36.7,1.42163E+12,6.7093477,-17.41703,1.0626402,18.69485183
49:36.7,1.42163E+12,1.5067667,-19.286793,-3.5934274,19.67646946
49:36.7,1.42163E+12,-2.7620564,-19.541115,-3.0981073,19.97704682
49:36.8,1.42163E+12,-4.61655,-19.575691,-3.5110986,20.4168564
49:36.8,1.42163E+12,0.43888733,-19.309696,1.0734178,19.34448778
49:36.8,1.42163E+12,4.581373,-19.544258,3.669619,20.4066926
49:36.8,1.42163E+12,2.9698243,-15.403419,2.0402572,15.8192232
49:36.8,1.42163E+12,2.0805235,-10.356962,1.332978,10.64763214
49:36.9,1.42163E+12,-1.284928,-7.1534743,2.8797116,7.817670588
49:36.9,1.42163E+12,-4.7133985,-2.1683908,3.3263826,6.163024037
49:36.9,1.42163E+12,-8.024513,1.2003539,-0.012274475,8.113803611
49:36.9,1.42163E+12,-8.970396,3.3679962,-1.6182847,9.717522738
49:36.9,1.42163E+12,-7.8624,3.9748342,-0.18276992,8.811926323
49:37.0,1.42163E+12,-6.109096,2.436184,0.75173676,6.619754873
49:37.0,1.42163E+12,-0.3546126,-1.9127225,-4.403543,4.814088534
49:37.0,1.42163E+12,6.7295556,-13.504317,-16.165934,22.11313904
49:37.0,1.42163E+12,4.3825865,-13.393249,-10.684931,17.6848504
49:37.0,1.42163E+12,0.33410522,2.4336393,10.9422455,11.21458707
49:37.1,1.42163E+12,-3.3552728,-7.282506,8.4155,11.62382852
49:37.1,1.42163E+12,-11.288625,-17.894688,6.7955685,22.22234606
49:37.1,1.42163E+12,-3.1487021,-6.9042425,1.8950592,7.821389824
49:37.1,1.42163E+12,-6.1448717,-5.1178575,6.327043,10.19722446
49:37.1,1.42163E+12,-5.9103093,-12.058325,12.451258,18.31307685
49:37.2,1.42163E+12,-4.203858,-18.181192,8.236921,20.39791735
49:37.2,1.42163E+12,3.6902761,-19.10477,-10.92084,22.31311544
49:37.2,1.42163E+12,8.52627,-17.780025,-4.7476773,20.28218452
49:37.2,1.42163E+12,7.2283187,-17.715511,-1.703308,19.20909106
49:37.2,1.42163E+12,5.9399476,-16.5659,-7.2091584,19.01799109
49:37.3,1.42163E+12,3.3025823,-12.215049,-9.8849945,16.05701056
49:37.3,1.42163E+12,2.527494,-8.74257,-7.669601,11.90140898
49:37.3,1.42163E+12,0.2890489,-5.0070877,-6.6330066,8.315723243
49:37.3,1.42163E+12,1.6654367,-2.1408482,-7.417226,7.897604191
49:37.3,1.42163E+12,4.0218368,0.003891907,-0.7408095,4.089496926
49:37.4,1.42163E+12,2.9307554,0.3023712,0.25012985,2.956910634
49:37.4,1.42163E+12,1.2484039,-0.9421408,-0.6709049,1.701838703
49:37.4,1.42163E+12,0.1817221,-2.9568014,-0.5420229,3.011558777
49:37.4,1.42163E+12,2.0483406,-9.522597,0.8042775,9.773556934
49:37.4,1.42163E+12,5.553751,-17.89319,-0.69066375,18.74799763
49:37.5,1.42163E+12,-2.02454,-19.351608,-4.195775,19.90447242
49:37.5,1.42163E+12,-4.9277525,-19.549946,-4.1677833,20.58770388
49:37.5,1.42163E+12,-3.8827758,-19.56192,-3.4576597,20.2410492
49:37.5,1.42163E+12,2.2347028,-19.143541,6.018684,20.19142431
49:37.5,1.42163E+12,2.8680358,-18.642233,4.4426117,19.37770057
49:37.6,1.42163E+12,2.7086174,-13.306878,2.9562025,13.89779636
49:37.6,1.42163E+12,1.2268487,-8.771909,2.4108865,9.179538058
49:37.6,1.42163E+12,-1.397943,-5.3067646,3.1609766,6.333069415
49:37.6,1.42163E+12,-5.1144147,-0.83661026,2.2525158,5.650750559
49:37.6,1.42163E+12,-8.087981,1.9005977,-0.66252226,8.334665201
49:37.7,1.42163E+12,-8.5943775,3.8829255,-2.6087751,9.784995788
49:37.7,1.42163E+12,-7.139703,4.212091,-0.44697052,8.301617443
49:37.7,1.42163E+12,-3.4572108,0.28096572,2.1665945,4.089667466
49:37.7,1.42163E+12,5.706134,-6.519842,-8.831485,12.37188071
49:37.7,1.42163E+12,8.94435,-17.560732,-17.382902,26.27824171
49:37.8,1.42163E+12,3.3284783,-12.7819195,-9.720635,16.399603
49:37.8,1.42163E+12,-0.3143463,0.2255809,7.1254826,7.135979444
49:37.8,1.42163E+12,-4.4396176,0.41134462,9.216784,10.23857979
49:37.8,1.42163E+12,-14.787748,-15.404467,10.221345,23.67384608
49:37.8,1.42163E+12,-7.7748322,-16.713194,0.85666853,18.45298757
49:37.9,1.42163E+12,-3.5889368,-6.582861,2.5444088,7.917609642
49:37.9,1.42163E+12,-4.311784,-11.684402,8.439151,15.04446745
49:37.9,1.42163E+12,-1.2084371,-15.680942,11.130404,19.2675415
49:37.9,1.42163E+12,1.8351837,-19.050585,-1.3121713,19.18370354
49:37.9,1.42163E+12,7.961494,-16.400944,-3.0296998,18.48121835
49:38.0,1.42163E+12,9.250613,-17.270187,1.9214044,19.68565454
49:38.0,1.42163E+12,6.461164,-19.132164,-3.1864238,20.443572
49:38.0,1.42163E+12,4.555327,-19.339483,-7.1745806,21.12442221
49:38.0,1.42163E+12,3.2415092,-13.888719,-10.652298,17.80099295
49:38.0,1.42163E+12,2.0902534,-9.898766,-9.830807,14.10671804
49:38.1,1.42163E+12,-0.7674541,-5.159022,-7.04959,8.769333667
49:38.1,1.42163E+12,0.25911117,-2.0290306,-7.081324,7.370838037
49:38.1,1.42163E+12,3.1037955,-0.314496,-2.7267296,4.143369227
49:38.1,1.42163E+12,3.9505847,0.46523255,-0.5629793,4.017524921
49:38.1,1.42163E+12,2.188,-0.68183213,-0.0889151,2.293500588
49:38.2,1.42163E+12,1.3747412,-3.2245944,0.20597167,3.511459346
49:38.2,1.42163E+12,2.6541307,-10.029444,1.2368779,10.44815886
49:38.2,1.42163E+12,6.5021787,-17.587526,3.317102,19.04212605
49:38.2,1.42163E+12,-0.81550413,-19.309994,-2.74095,19.52059738
49:38.2,1.42163E+12,-2.3541546,-19.481539,-1.9311342,19.7180548
49:38.3,1.42163E+12,-3.1364279,-19.56761,-3.0720615,20.05407946
49:38.3,1.42163E+12,-2.3816972,-19.021395,-0.97342575,19.19462182
49:38.3,1.42163E+12,1.8847307,-19.064655,9.029673,21.1789583
49:38.3,1.42163E+12,1.924997,-17.848883,3.8636155,18.36343548
49:38.3,1.42163E+12,2.751129,-10.850187,1.4447955,11.28639459
49:38.4,1.42163E+12,-0.057779845,-6.6536636,2.0948937,6.975898324
49:38.4,1.42163E+12,-3.2454011,-3.3229399,3.508554,5.821040203
49:38.4,1.42163E+12,-6.354436,0.8734337,1.387315,6.562498474
49:38.4,1.42163E+12,-8.249196,3.732638,-1.0728191,9.117716924
49:38.4,1.42163E+12,-7.7082205,4.5532317,-0.6180647,8.973883561
49:38.5,1.42163E+12,-6.9126253,3.3805702,0.77419007,7.733822708
49:38.5,1.42163E+12,-2.499203,-0.6873706,-0.70114195,2.685161822
49:38.5,1.42163E+12,5.4982166,-7.994276,-14.231655,17.22436758
49:38.5,1.42163E+12,3.931275,-16.72996,-15.149696,22.90981828
49:38.5,1.42163E+12,-0.6414162,-6.024372,5.37637,8.099989328
49:38.6,1.42163E+12,-2.3824456,-5.8350163,10.428364,12.18500053
49:38.6,1.42163E+12,-9.954749,-17.620308,6.2518992,21.18156097
49:38.6,1.42163E+12,-4.118386,-9.065897,5.399272,11.32712363
49:38.6,1.42163E+12,-6.53511,-2.1520748,6.7093477,9.610121499
49:38.6,1.42163E+12,-6.1183767,-11.025772,11.231444,16.8863115
49:38.7,1.42163E+12,-3.4765205,-17.834812,15.492783,23.87871519
49:38.7,1.42163E+12,1.5820601,-19.343674,-5.7034397,20.22893626
49:38.7,1.42163E+12,7.9863424,-15.519128,-6.2176204,18.52791953
49:38.7,1.42163E+12,7.4600368,-16.727415,1.7058526,18.39479532
49:38.7,1.42163E+12,5.066963,-18.12401,-2.9563522,19.04977351
49:38.8,1.42163E+12,2.6990373,-16.449892,-8.674761,18.7918926
49:38.8,1.42163E+12,3.2419584,-12.255764,-10.694361,16.58563845
49:38.8,1.42163E+12,3.873046,-8.620723,-8.36715,12.6224621
49:38.8,1.42163E+12,1.3063334,-5.1316285,-8.058792,9.642833946
49:38.8,1.42163E+12,1.5263759,-3.1388228,-9.201665,9.841375449
49:38.9,1.42163E+12,3.5539095,-0.77972853,-2.380799,4.348155148
49:38.9,1.42163E+12,3.444487,-0.04535568,2.8198361,4.451743867
49:38.9,1.42163E+12,2.8443851,-0.33380586,1.9246975,3.450567115
49:39.0,1.42163E+12,3.2510893,-4.0555167,-0.3715274,5.211029644
49:39.0,1.42163E+12,6.254893,-12.979659,2.3939717,14.60569528
49:39.0,1.42163E+12,3.6634817,-18.55182,-1.9178119,19.00708094
49:39.0,1.42163E+12,-5.5199213,-19.441122,-3.640729,20.53488893
49:39.0,1.42163E+12,-7.5875716,-19.56207,-2.8967762,21.18105611
49:39.0,1.42163E+12,-6.05416,-19.578537,-3.3341665,20.76267398
49:39.0,1.42163E+12,-3.0587394,-19.580782,0.9792636,19.84242595
49:39.1,1.42163E+12,1.7595909,-19.295176,3.5190322,19.69222092
49:39.1,1.42163E+12,3.4623,-11.302097,2.8418403,12.1573424
49:39.1,1.42163E+12,2.205813,-7.6149645,2.497706,8.312149577
49:39.1,1.42163E+12,-1.5817608,-4.098178,3.2025902,5.436323587
49:39.1,1.42163E+12,-4.8841934,-1.1051518,3.660488,6.202892718
49:39.2,1.42163E+12,-6.501131,2.2906866,-0.23860382,6.89701973
49:39.2,1.42163E+12,-8.115224,4.9235616,-2.4526496,9.803765066
49:39.2,1.42163E+12,-6.845714,6.411318,-0.0968486,9.379668348
49:39.2,1.42163E+12,-2.7996283,3.52966,1.0919793,4.635605368
49:39.2,1.42163E+12,4.2299037,-3.7904177,-5.951923,8.227073541
49:39.3,1.42163E+12,6.373746,-14.534775,-16.799864,23.11103098
49:39.3,1.42163E+12,1.6266674,-11.98842,-7.527846,14.24909563
49:39.3,1.42163E+12,-1.4940431,-0.3878435,13.663437,13.75034901
49:39.3,1.42163E+12,-4.9392786,-11.905044,13.463303,18.63832271
49:39.3,1.42163E+12,-8.936117,-18.537003,2.2980213,20.70641372
49:39.4,1.42163E+12,-3.9139109,-7.763456,1.3358221,8.796270135
49:39.4,1.42163E+12,-5.5774016,-6.791976,8.641081,12.32504067
49:39.4,1.42163E+12,-5.527705,-14.191988,13.408517,20.29178095
49:39.4,1.42163E+12,-2.6316774,-18.634,11.831845,22.22935532
49:39.4,1.42163E+12,4.944967,-19.452349,-7.367978,21.38068474
49:39.5,1.42163E+12,9.81015,-17.132622,-7.292086,21.04614686
49:39.5,1.42163E+12,8.158934,-16.373402,-4.383185,18.81140101
49:39.5,1.42163E+12,6.705905,-15.940651,-7.4777,18.8411654
49:39.5,1.42163E+12,4.1983194,-12.235107,-7.98739,15.20270134
49:39.5,1.42163E+12,2.1071682,-8.224497,-7.317533,11.20842531
49:39.6,1.42163E+12,-0.33230895,-4.2053547,-7.2498736,8.387854589
49:39.6,1.42163E+12,1.4715898,-1.6506175,-7.135811,7.470603275
49:39.6,1.42163E+12,3.1320868,-0.31374756,-2.0950434,3.781218336
49:39.6,1.42163E+12,1.9740949,-0.77583665,-1.4422508,2.564967944
49:39.6,1.42163E+12,-0.09235794,-2.0583696,-3.142565,3.757809226
49:39.7,1.42163E+12,-0.31763947,-5.7507415,-0.7952962,5.814156747
49:39.7,1.42163E+12,2.0181034,-14.663358,1.7363892,14.90308212
49:39.7,1.42163E+12,-0.4340973,-18.912271,-7.7261834,20.43419548
49:39.7,1.42163E+12,-5.6025496,-17.923428,-5.2283278,19.49290242
49:39.7,1.42163E+12,-3.2135174,-19.174227,-0.89903045,19.46242356
49:39.8,1.42163E+12,3.0129347,-19.525846,2.8952792,19.9679513
49:39.8,1.42163E+12,6.40054,-16.621885,3.7043467,18.19275014
49:39.8,1.42163E+12,5.447472,-10.131981,3.5341506,12.03421001
49:39.8,1.42163E+12,1.1383827,-5.632637,6.238577,8.481884091
49:39.8,1.42163E+12,-2.339036,-3.3320708,5.175338,6.58467225
49:39.9,1.42163E+12,-5.39538,0.39757323,2.6566753,6.027114854
49:39.9,1.42163E+12,-7.865244,4.3623786,-1.3356725,9.092658096
49:40.0,1.42163E+12,-7.782017,6.1445723,-2.3287075,10.18520672
49:40.0,1.42163E+12,-5.709577,3.692671,-1.4111155,6.944518384
49:40.0,1.42163E+12,0.4514612,-3.3980837,-6.0713744,6.97225768
49:40.0,1.42163E+12,6.0511665,-14.197825,-16.689993,22.73215162
49:40.0,1.42163E+12,0.4297563,-13.577665,-11.557017,17.83542316
49:40.0,1.42163E+12,-3.8475988,-1.8598824,12.452006,13.16493952
49:40.0,1.42163E+12,-5.52546,-2.5662634,10.698552,12.31159742
49:40.0,1.42163E+12,-16.654816,-16.525187,7.2572083,24.55874129
49:40.1,1.42163E+12,-2.8834538,-13.346845,-3.629203,14.12882485
49:40.1,1.42163E+12,-0.28994706,-3.7161722,7.7679462,8.615973148
49:40.1,1.42163E+12,-1.3245955,-11.034154,10.915002,15.57704646
49:40.1,1.42163E+12,-0.26000932,-16.918268,12.541071,21.06119319
49:40.1,1.42163E+12,0.6965016,-19.218985,-1.6239729,19.30004629
49:40.2,1.42163E+12,6.0260186,-15.372433,-4.2349935,17.04581375
49:40.2,1.42163E+12,7.4217167,-15.654147,1.873055,17.42534166
49:40.2,1.42163E+12,5.093009,-17.561031,-3.8752913,18.69081146
49:40.3,1.42163E+12,3.818709,-18.670225,-7.5040455,20.48097993
49:40.3,1.42163E+12,3.4865496,-13.2003,-8.925639,16.31168231
49:40.3,1.42163E+12,4.5743375,-7.951764,-7.6951976,11.97377052
49:40.3,1.42163E+12,2.5246499,-4.388574,-5.4188814,7.416044397
49:40.3,1.42163E+12,2.6095235,-2.6623635,-7.5476046,8.418083363
49:40.3,1.42163E+12,5.418582,-1.1674223,-2.8523185,6.233748996
49:40.3,1.42163E+12,4.7535152,-0.8693921,0.66955763,4.878530188
49:40.4,1.42163E+12,1.452729,-1.3974938,-1.1600876,2.325771637
49:40.4,1.42163E+12,-0.8833131,-2.700235,-4.685257,5.479337938
49:40.4,1.42163E+12,-0.61522067,-8.567434,-1.4700929,8.714390108
49:40.4,1.42163E+12,3.6170783,-17.281862,0.001047821,17.65633061
49:40.4,1.42163E+12,-2.8205845,-19.268381,-5.2352133,20.1651596
49:40.5,1.42163E+12,-7.149133,-19.538568,-4.938979,21.3836212
49:40.5,1.42163E+12,-4.6569657,-19.575394,-1.40902,20.17098701
49:40.5,1.42163E+12,2.1516256,-19.580332,5.1865644,20.36956907
49:40.5,1.42163E+12,3.969146,-17.870888,4.4291396,18.83454368
49:40.6,1.42163E+12,3.5805542,-10.568024,3.182083,11.6029803
49:40.6,1.42163E+12,1.0324031,-6.3632674,3.2293844,7.210128415
49:40.6,1.42163E+12,-2.5008495,-2.3658302,3.4319134,4.861011247
49:40.6,1.42163E+12,-6.8898726,1.4400055,2.706971,7.541329609
49:40.6,1.42163E+12,-9.07413,4.636009,-1.8875748,10.36317294
49:40.6,1.42163E+12,-8.436606,7.7106156,-3.078199,11.83660521
49:40.7,1.42163E+12,-5.768704,6.518794,0.8313711,8.744358122
49:40.7,1.42163E+12,0.15417938,1.6793578,-0.15717316,1.693728817
49:40.7,1.42163E+12,6.5244823,-10.000854,-11.869717,16.83674944
49:40.7,1.42163E+12,5.241201,-14.237343,-17.236057,22.96200742
49:40.7,1.42163E+12,-1.3953983,-4.0854545,9.365873,10.31298463
49:40.8,1.42163E+12,-2.8629465,-2.349065,12.785064,13.31061345
49:40.8,1.42163E+12,-14.231206,-16.279995,12.730127,25.09226165
49:40.8,1.42163E+12,-6.4662533,-17.371525,-4.845274,19.1587837
49:40.8,1.42163E+12,-3.0186226,-3.757187,2.939138,5.645092447
49:40.8,1.42163E+12,-3.681145,-10.298285,12.199182,16.3836975
49:40.9,1.42163E+12,-0.56492525,-17.748741,16.20575,24.04086689
49:40.9,1.42163E+12,2.7830126,-19.33185,-0.7141649,19.54419645
49:40.9,1.42163E+12,7.303911,-15.971637,-6.623726,18.77003065
49:40.9,1.42163E+12,7.3193293,-17.817448,-0.44517425,19.26738734
49:41.0,1.42163E+12,5.989944,-18.998194,-4.8952703,20.5127881
49:41.0,1.42163E+12,5.271438,-16.923807,-11.277248,21.00903673
49:41.0,1.42163E+12,3.9695952,-10.720856,-10.198143,15.3198094
49:41.0,1.42163E+12,1.663341,-7.294032,-8.276888,11.15690284
49:41.0,1.42163E+12,0.22767654,-3.8101766,-7.05932,8.025165493
49:41.0,1.42163E+12,2.6234446,-1.8053956,-3.4874477,4.722732927
49:41.1,1.42163E+12,4.3974056,-0.7339238,0.047301635,4.458481535
49:41.1,1.42163E+12,3.7851787,-1.3858181,-1.2253518,4.213022268
49:41.1,1.42163E+12,1.0626402,-2.4695644,-2.9909303,4.021643517
49:41.1,1.42163E+12,0.105680235,-5.680687,-1.7808467,5.954224389
49:41.1,1.42163E+12,4.491111,-15.371534,1.0347981,16.0475837
49:41.2,1.42163E+12,2.3468199,-19.008522,-3.253185,19.42716358
49:41.2,1.42163E+12,-4.227808,-19.503242,-4.082011,20.36942863
49:41.2,1.42163E+12,-6.6466284,-19.570602,-4.1866436,21.08824593
49:41.3,1.42163E+12,0.9647438,-19.579733,4.8999104,20.20657806
49:41.3,1.42163E+12,2.7563682,-19.550844,7.1593122,21.00211461
49:41.3,1.42163E+12,3.2015424,-11.707603,3.6527042,12.67517612
49:41.3,1.42163E+12,2.7472372,-7.692653,3.3588653,8.832111781
49:41.3,1.42163E+12,0.6794371,-3.6305501,3.030598,4.777766532
49:41.3,1.42163E+12,-4.535119,0.8533754,1.9202069,4.998274548
49:41.3,1.42163E+12,-8.379575,3.9948926,-1.8538948,9.466433858
49:41.4,1.42163E+12,-9.697884,6.1078987,-1.9493963,11.62564091
49:41.4,1.42163E+12,-8.542436,6.3869185,2.0670516,10.86455904
49:41.4,1.42163E+12,-3.766168,3.1716046,1.4200969,5.124428978
49:41.4,1.42163E+12,4.216432,-4.660259,-8.560847,10.62000066
49:41.4,1.42163E+12,5.9430914,-13.890065,-17.428856,23.06554275
49:41.5,1.42163E+12,1.3254936,-9.804761,-0.46493316,9.904869226
49:41.5,1.42163E+12,-2.7779233,-7.54521,13.800102,15.97153302
49:41.5,1.42163E+12,-8.383018,-17.775387,8.680748,21.48475645
49:41.5,1.42163E+12,-4.884343,-12.089759,3.9570212,13.62633832
49:41.6,1.42163E+12,-5.9722805,-4.5586205,5.0621734,9.059511839
49:41.6,1.42163E+12,-6.010152,-11.792478,9.661209,16.38668434
49:41.6,1.42163E+12,-2.956502,-18.481318,11.703712,22.07434922
49:41.6,1.42163E+12,1.022823,-19.431541,-2.205364,19.58301772
49:41.6,1.42163E+12,6.4699955,-16.313826,-5.01068,18.25126501
49:41.6,1.42163E+12,7.980804,-15.575261,2.2559588,17.64571727
49:41.7,1.42163E+12,6.7803,-18.384619,-1.3674065,19.6427209
49:41.7,1.42163E+12,6.4643073,-19.388283,-4.8283596,21.00013912
49:41.7,1.42163E+12,6.3496456,-13.640834,-11.496693,18.93579418
49:41.7,1.42163E+12,3.6052527,-11.96941,-10.068213,16.05096682
49:41.7,1.42163E+12,0.62450135,-7.4636292,-9.076226,11.76748236
49:41.8,1.42163E+12,1.4340179,-3.3973353,-7.29493,8.174001357
49:41.8,1.42163E+12,3.9137614,0.24878265,-2.7451415,4.786984746
49:41.8,1.42163E+12,2.9398866,-0.11047027,-0.27512786,2.954798173
49:41.8,1.42163E+12,0.23830444,0.24099883,-1.1400293,1.189342779
49:41.8,1.42163E+12,-0.6768924,-1.3015435,-1.6338524,2.195830701
49:41.9,1.42163E+12,1.510958,-9.203162,-2.5875192,9.678659023
49:41.9,1.42163E+12,7.294032,-17.798887,-0.41478744,19.23994101
49:41.9,1.42163E+12,-0.54726195,-19.338736,-3.8646634,19.72870571
49:41.9,1.42163E+12,-6.0483227,-19.54815,-2.8542645,20.66057119
49:41.9,1.42163E+12,-5.682633,-19.57674,-1.0350975,20.41108752
49:42.0,1.42163E+12,1.6636405,-19.580482,1.5456858,19.71172544
49:42.0,1.42163E+12,4.9373326,-17.89888,3.993695,18.99201828
49:42.0,1.42163E+12,5.502108,-10.99284,1.4446459,12.37750886
49:42.0,1.42163E+12,2.0390596,-8.477621,1.8429675,8.91203406
49:42.0,1.42163E+12,-0.80592406,-4.7888417,3.3388069,5.89322916
49:42.1,1.42163E+12,-4.3084903,-0.94962525,1.9743942,4.833540032
49:42.1,1.42163E+12,-7.4399786,2.9945228,-3.814368,8.88086998
49:42.1,1.42163E+12,-9.789642,5.1955457,-6.1713667,12.68528882
49:42.1,1.42163E+12,-7.6841207,4.4047403,-2.7104137,9.26249375
49:42.1,1.42163E+12,-3.3793726,1.1847862,0.46493316,3.611099604
49:42.2,1.42163E+12,0.98540086,-5.1897078,-0.8813672,5.355454233
49:42.2,1.42163E+12,4.8466215,-12.357852,-7.6432557,15.31749339
49:42.3,1.42163E+12,4.655918,-14.3346405,-11.606265,19.02274633
49:42.3,1.42163E+12,1.664838,-6.8686166,-2.5132737,7.501074873
49:42.3,1.42163E+12,-4.3081913,-0.61402315,9.666598,10.60097418
49:42.3,1.42163E+12,-12.765604,-14.643,6.3372216,20.43375815
49:42.3,1.42163E+12,-5.4471726,-13.350737,1.3470488,14.48200291
49:42.3,1.42163E+12,-0.24444169,-7.356901,4.277505,8.51356524
49:42.3,1.42163E+12,-2.8683352,-7.700437,5.047055,9.643486972
49:42.3,1.42163E+12,-3.1805859,-12.010723,8.894504,15.28024198
49:42.4,1.42163E+12,-1.0761123,-17.853523,7.929161,19.56471046
49:42.4,1.42163E+12,3.7968545,-19.3311,-2.0728893,19.80919992
49:42.4,1.42163E+12,8.204739,-16.255747,0.5572911,18.21750877
49:42.4,1.42163E+12,9.138946,-16.424147,4.3863287,19.30059113
49:42.4,1.42163E+12,6.5008316,-18.468445,-2.6114695,19.7525706
49:42.5,1.42163E+12,4.75576,-19.402802,-3.769162,20.32959815
49:42.5,1.42163E+12,3.0687685,-15.659087,-9.390573,18.51505353
49:42.5,1.42163E+12,1.4859599,-13.218862,-15.819853,20.66915911
49:42.6,1.42163E+12,-1.3027409,-8.711584,-11.114088,14.18138857
49:42.6,1.42163E+12,-1.8335371,-4.0430923,-6.316415,7.720463205
49:42.6,1.42163E+12,1.4099181,-2.5081842,-2.7268794,3.964180658
49:42.6,1.42163E+12,3.7089872,-0.014519806,1.6986676,4.079493656
49:42.6,1.42163E+12,5.5586905,1.3332775,-0.4209247,5.731827507
49:42.6,1.42163E+12,5.552703,-0.8497829,0.14774276,5.619294396
49:42.6,1.42163E+12,3.532504,-3.9787261,-0.64575714,5.359650005
49:42.7,1.42163E+12,2.7207422,-10.489287,-2.8830047,11.21335347
49:42.7,1.42163E+12,6.2694125,-17.634079,2.5994942,18.89506934
49:42.7,1.42163E+12,-1.882635,-19.316282,-3.0750554,19.64991172
49:42.7,1.42163E+12,-4.0466847,-19.545156,-2.6438022,20.13401277
49:42.7,1.42163E+12,-4.7196856,-19.57629,-3.858077,20.50344655
49:42.8,1.42163E+12,-2.9264145,-19.580482,-2.1170475,19.91082789
49:42.8,1.42163E+12,0.891546,-19.581081,3.3132102,19.87941018
49:42.8,1.42163E+12,3.213817,-18.54763,3.5928288,19.16381009
49:42.8,1.42163E+12,3.3024325,-12.268936,3.2967443,13.12636179
49:42.8,1.42163E+12,2.1763244,-8.20384,2.5045917,8.849427
49:42.9,1.42163E+12,-0.176483,-4.5882587,3.21711,5.6065195
49:42.9,1.42163E+12,-3.551365,-1.6645386,1.4100678,4.167873956
49:42.9,1.42163E+12,-6.629564,1.9592757,-2.4873774,7.346899103
49:42.9,1.42163E+12,-8.978479,4.7235775,-2.8966265,10.55062627
49:42.9,1.42163E+12,-8.092621,5.918842,0.4352948,10.03557108
49:43.0,1.42163E+12,-4.356391,2.4644752,1.2642709,5.162379438
49:43.0,1.42163E+12,2.1757255,-4.4680586,-5.6784415,7.545994101
49:43.0,1.42163E+12,4.8557525,-11.795471,-15.113172,19.77673978
49:43.0,1.42163E+12,3.2772849,-12.516072,-13.160033,18.45478592
49:43.0,1.42163E+12,-0.619861,-2.0270846,8.416398,8.679231241
49:43.1,1.42163E+12,-4.611311,-9.102871,11.053464,15.04345426
49:43.1,1.42163E+12,-8.404872,-18.085093,4.111949,20.36223433
49:43.1,1.42163E+12,-3.2822247,-11.269914,4.2239165,12.47499223
49:43.1,1.42163E+12,-5.6661673,-8.147707,6.795868,12.02806731
49:43.1,1.42163E+12,-4.867578,-10.8198,8.497379,14.59338335
49:43.2,1.42163E+12,-2.7433453,-15.57077,10.597063,19.03345912
49:43.2,1.42163E+12,0.40909928,-19.035616,-2.508334,19.20452494
49:43.2,1.42163E+12,7.060518,-17.098045,-2.412084,18.65508527
49:43.2,1.42163E+12,8.869805,-15.49443,3.6883302,18.23059465
49:43.2,1.42163E+12,7.8862004,-17.86954,-2.864144,19.74122431
49:43.3,1.42163E+12,6.678512,-19.318228,-4.9813414,21.03830359
49:43.3,1.42163E+12,6.428083,-14.635515,-8.855735,18.27409622
49:43.3,1.42163E+12,4.283792,-11.97854,-11.066637,16.86139819
49:43.3,1.42163E+12,0.6813831,-8.092173,-8.253238,11.57857868
49:43.3,1.42163E+12,-0.4673282,-3.4519715,-8.171357,8.882881183
49:43.4,1.42163E+12,2.2564077,-0.93375826,-3.8996906,4.601181041
49:43.4,1.42163E+12,3.7564385,1.3355228,1.6395406,4.310747584
49:43.4,1.42163E+12,3.0653257,0.4682263,0.68587375,3.175827501
49:43.4,1.42163E+12,1.843267,-2.1929398,-0.77613604,2.967996859
49:43.4,1.42163E+12,3.7384758,-9.668244,-1.5858023,10.48646329
49:43.5,1.42163E+12,4.746031,-16.992365,-2.0818708,17.76511932
49:43.5,1.42163E+12,-0.690065,-19.229013,-3.5757642,19.57082574
49:43.5,1.42163E+12,-5.2980824,-19.53333,-2.8410919,20.43752581
49:43.5,1.42163E+12,-5.9757233,-19.574644,-3.176694,20.71152678
49:43.5,1.42163E+12,-1.6411872,-19.580332,-0.8625064,19.66791331
49:43.6,1.42163E+12,1.6833993,-19.581081,4.869823,20.24766017
49:43.6,1.42163E+12,5.8579183,-13.376334,2.8599527,14.88021665
49:43.6,1.42163E+12,4.040548,-8.671917,2.5997937,9.913985065
49:43.6,1.42163E+12,1.2618759,-5.0674124,3.4178426,6.241205593
49:43.6,1.42163E+12,-3.2123199,-1.791774,5.34748,6.490377151
49:43.7,1.42163E+12,-6.7437763,2.1097128,0.59695864,7.091245765
49:43.7,1.42163E+12,-10.188562,5.6940093,-2.6291327,11.96414963
49:43.7,1.42163E+12,-9.344318,6.5586114,-0.081430666,11.41657976
49:43.7,1.42163E+12,-4.205804,2.8259733,1.0103989,5.16679962
49:43.7,1.42163E+12,1.3057348,-3.0822403,-5.9553657,6.831656406
49:43.8,1.42163E+12,5.2919455,-12.840149,-16.232544,21.36280876
49:43.8,1.42163E+12,3.8540354,-12.708273,-11.8670225,17.80954841
49:43.8,1.42163E+12,-1.4885046,-4.7113028,11.384576,12.41050324
49:43.9,1.42163E+12,-6.5416965,-15.540683,8.951535,19.09022263
49:43.9,1.42163E+12,-6.81892,-16.159645,6.4128146,18.67500971
49:43.9,1.42163E+12,-6.1098447,-5.9022264,4.4265947,9.579207659
49:43.9,1.42163E+12,-6.9870205,-7.80941,7.776928,13.04936585
49:43.9,1.42163E+12,-3.8136196,-16.501236,12.681179,21.15766492
49:43.9,1.42163E+12,-0.39068756,-19.15881,6.3637166,20.1918183
49:44.0,1.42163E+12,5.138215,-18.033897,-9.389375,20.97100516
49:44.0,1.42163E+12,8.11223,-15.488741,-0.62959075,17.49587831
49:44.0,1.42163E+12,8.813522,-17.10029,1.705254,19.31336271
49:44.0,1.42163E+12,6.546636,-18.800156,-4.2978625,20.36604848
49:44.0,1.42163E+12,4.8608418,-15.501764,-7.9242215,18.07555688
49:44.0,1.42163E+12,3.8815782,-11.947555,-10.974877,16.68108644
49:44.1,1.42163E+12,1.9152672,-10.062225,-10.722802,14.82886048
49:44.1,1.42163E+12,-0.011076965,-5.4226236,-6.31881,8.326603703
49:44.1,1.42163E+12,1.0286609,-2.595303,-7.928263,8.405420579
49:44.1,1.42163E+12,4.2589436,-0.87522995,-3.8300853,5.79432321
49:44.2,1.42163E+12,3.7637732,-0.8108638,1.2196637,4.038696367
49:44.2,1.42163E+12,2.0627105,-1.3937516,3.9589672,4.676616236
49:44.2,1.42163E+12,2.544259,-6.417904,-0.43095383,6.91725862
49:44.2,1.42163E+12,4.239484,-17.348774,-2.6068292,18.04851081
49:44.2,1.42163E+12,-1.8414706,-19.277512,-3.478766,19.67524576
49:44.2,1.42163E+12,-4.0421944,-19.539917,-3.6139348,20.27826957
49:44.3,1.42163E+12,-3.5160384,-19.575542,-3.623515,20.21618737
49:44.3,1.42163E+12,-0.5019063,-19.580332,1.4591657,19.6410406
49:44.3,1.42163E+12,4.117787,-19.581081,4.00567,20.40637878
49:44.3,1.42163E+12,5.1606684,-15.243252,2.7159522,16.32071157
49:44.3,1.42163E+12,3.7741017,-9.986632,3.3394058,11.18607587
49:44.4,1.42163E+12,0.9156459,-6.84781,4.6978307,8.354670699
49:44.4,1.42163E+12,-2.2204826,-3.74132,4.857399,6.520915838
49:44.4,1.42163E+12,-5.9613533,-0.18995498,2.4132814,6.4341078
49:44.4,1.42163E+12,-9.80536,3.644621,-1.7224681,10.60166229
49:44.4,1.42163E+12,-11.289523,6.2873755,-1.2632232,12.983842
49:44.5,1.42163E+12,-8.532107,6.191874,0.28874955,10.54606703
49:44.5,1.42163E+12,-1.3299843,0.93660235,-0.30701157,1.655396721
49:44.5,1.42163E+12,6.1935205,-9.71839,-11.390862,16.20365815
49:44.5,1.42163E+12,4.903054,-15.6727085,-18.082996,24.42679829
49:44.5,1.42163E+12,0.99543,-5.4362454,4.4261456,7.080565642
49:44.6,1.42163E+12,-3.8916073,-0.3248245,14.122083,14.65207653
49:44.6,1.42163E+12,-10.938653,-15.740817,7.556586,20.60411224
49:44.6,1.42163E+12,-6.5719337,-17.303417,2.0222945,18.61956572
49:44.6,1.42163E+12,-4.573739,-7.1055737,3.2600706,9.057390704
49:44.6,1.42163E+12,-4.2203236,-11.44969,7.8029737,14.48423042
49:44.7,1.42163E+12,-0.58303756,-15.043866,12.114458,19.32402468
49:44.7,1.42163E+12,2.2043161,-18.792072,3.3627572,19.21741698
49:44.7,1.42163E+12,7.505093,-17.117504,-4.665199,19.2639416
49:44.7,1.42163E+12,8.6225195,-16.148418,0.51268387,18.31344018
49:44.7,1.42163E+12,5.97243,-18.584902,-3.12086,19.76887123
49:44.8,1.42163E+12,4.056265,-17.89858,-5.180128,19.06950911
49:44.8,1.42163E+12,1.830244,-12.99822,-10.396181,16.74467365
49:44.8,1.42163E+12,2.9972172,-11.15166,-12.36354,16.91744523
49:44.8,1.42163E+12,2.4495063,-8.11238,-8.778345,12.20123483
49:44.8,1.42163E+12,0.17109421,-3.8435574,-8.811276,9.614613433
49:44.9,1.42163E+12,2.6628127,-1.1618838,-5.0081353,5.789815595
49:44.9,1.42163E+12,3.8020935,0.6471043,2.0088227,4.348566154
49:44.9,1.42163E+12,2.0422032,0.3743715,1.5801141,2.609120254
49:44.9,1.42163E+12,1.2696598,-1.5446379,0.9635463,2.219541331
49:44.9,1.42163E+12,4.578529,-12.7436,-2.5915608,13.78689436
49:45.0,1.42163E+12,5.2720366,-18.559456,-1.8510507,19.3823158
49:45.0,1.42163E+12,-3.0075457,-19.44217,-4.133804,20.10302567
49:45.0,1.42163E+12,-4.7725253,-19.56222,-3.7188666,20.47650893
49:45.0,1.42163E+12,-3.6536024,-19.578537,-3.0750554,20.15251566
49:45.0,1.42163E+12,2.166894,-19.580782,4.728966,20.25994997
49:45.1,1.42163E+12,4.6422963,-18.97005,3.8681061,19.90919277
49:45.1,1.42163E+12,5.4816008,-12.243789,3.2311807,13.7985088
49:45.1,1.42163E+12,2.5460556,-8.638536,3.548371,9.679754134
49:45.1,1.42163E+12,0.13816269,-5.6990986,4.1387434,7.044715091
49:45.2,1.42163E+12,-3.564238,-1.9920574,4.0383024,5.742819123
49:45.2,1.42163E+12,-7.539372,2.526147,-0.5289999,7.968901412
49:45.2,1.42163E+12,-11.072175,5.8627086,-2.6219475,12.79996172
49:45.2,1.42163E+12,-10.358459,7.4687185,0.16989669,12.77138574
49:45.2,1.42163E+12,-5.469027,3.393593,0.19699036,6.439373803
49:45.2,1.42163E+12,2.0992346,-4.819977,-6.4744864,8.340140186
49:45.3,1.42163E+12,5.0192127,-13.481864,-16.822317,22.13466743
49:45.3,1.42163E+12,2.91414,-13.472584,-10.945988,17.60163018
49:45.3,1.42163E+12,-0.3492238,-9.333691,10.894944,14.35059405
49:45.3,1.42163E+12,-4.266428,-17.428556,9.35794,20.23679849
49:45.3,1.42163E+12,-5.747897,-9.826765,7.3241196,13.53685186
49:45.4,1.42163E+12,-7.62679,-3.2376173,6.4182034,10.48062147
49:45.4,1.42163E+12,-8.580157,-7.0272865,6.813232,13.01621988
49:45.4,1.42163E+12,-4.93389,-16.4466,12.048145,20.9759796
49:45.4,1.42163E+12,-1.6660354,-19.154768,8.623418,21.07235509
49:45.4,1.42163E+12,4.6331654,-18.74926,-6.541397,20.39095012
49:45.5,1.42163E+12,8.706345,-16.35993,-2.5240512,18.70343785
49:45.5,1.42163E+12,8.820108,-17.211208,0.8014334,19.35619491
49:45.5,1.42163E+12,5.7119718,-19.038908,-4.4297385,20.36490174
49:45.5,1.42163E+12,3.9959404,-15.968044,-7.9457765,18.27789192
49:45.5,1.42163E+12,4.3321414,-12.020004,-11.556568,17.22794849
49:45.6,1.42163E+12,2.5228536,-10.003847,-10.558892,14.76251826
49:45.6,1.42163E+12,-0.35760635,-4.768035,-7.74714,9.103857328
49:45.6,1.42163E+12,1.2039464,-2.453997,-8.845855,9.258549503
49:45.6,1.42163E+12,3.4881964,0.24174729,-0.20971389,3.502846813
49:45.6,1.42163E+12,3.585943,-0.35102004,2.38035,4.318364087
49:45.7,1.42163E+12,1.5084132,-0.43604323,0.66686326,1.705916378
49:45.7,1.42163E+12,1.4188994,-4.5463457,-1.4153068,4.968463351
49:45.7,1.42163E+12,5.2344646,-16.165634,-2.2203329,17.13642963
49:45.7,1.42163E+12,2.633324,-19.113153,-3.1246023,19.54508001
49:45.7,1.42163E+12,-3.668122,-19.156115,-4.2725654,19.96663908
49:45.8,1.42163E+12,-5.231022,-19.5233,-4.0113583,20.60615999
49:45.8,1.42163E+12,-0.35116974,-19.573298,0.4805008,19.58234398
49:45.9,1.42163E+12,2.4878266,-19.580032,6.223608,20.6954157
49:45.9,1.42163E+12,4.2998085,-17.797241,4.1709266,18.77835906
49:45.9,1.42163E+12,3.7187169,-11.135942,2.214944,11.94755358
49:45.9,1.42163E+12,1.5639478,-7.610773,2.6867628,8.221222094
49:45.9,1.42163E+12,-1.8137783,-2.913691,3.4497263,4.866209871
49:45.9,1.42163E+12,-5.930667,1.4180013,1.3723462,6.250349818
49:45.9,1.42163E+12,-9.575737,4.716392,-2.8669882,11.05254332
49:45.9,1.42163E+12,-10.034683,6.317463,-0.91579556,11.89301825
49:46.0,1.42163E+12,-6.7668285,5.309309,1.2259506,8.688019618
49:46.0,1.42163E+12,-1.1308982,-1.1050022,-1.6771125,2.304922328
49:46.0,1.42163E+12,4.450246,-10.303524,-13.326937,17.42339077
49:46.0,1.42163E+12,5.222939,-15.598912,-15.139367,22.356332
49:46.0,1.42163E+12,0.9380992,-4.4935055,6.061046,7.603150689
49:46.1,1.42163E+12,-3.5625916,-5.388195,10.899734,12.67000022
49:46.1,1.42163E+12,-9.198372,-16.52264,7.4274044,20.3168407
49:46.1,1.42163E+12,-6.0969715,-14.261443,4.8547044,16.25207595
49:46.1,1.42163E+12,-4.6842093,-6.4056296,5.1268387,9.447665447
49:46.1,1.42163E+12,-3.6437228,-12.078682,9.73321,15.93444858
49:46.2,1.42163E+12,-0.33874556,-17.027391,10.981015,20.26399475
49:46.2,1.42163E+12,1.9661614,-19.233803,-3.6796482,19.68107668
49:46.2,1.42163E+12,5.437742,-16.770226,-3.575315,17.98867409
49:46.2,1.42163E+12,6.633306,-16.134048,2.7134075,17.65420159
49:46.2,1.42163E+12,5.196444,-18.549576,-1.9288888,19.36002097
49:46.3,1.42163E+12,4.6409492,-18.458117,-4.5249405,19.56311783
49:46.3,1.42163E+12,3.7812867,-12.997622,-10.560539,17.16861354
49:46.3,1.42163E+12,2.8340566,-13.124258,-13.799205,19.25346939
49:46.3,1.42163E+12,0.38814285,-8.7576885,-7.8905416,11.79442281
49:46.3,1.42163E+12,0.17408799,-3.6497104,-9.4981985,10.17676114
49:46.4,1.42163E+12,3.211871,-1.8851798,-3.6618352,5.222935499
49:46.4,1.42163E+12,4.7509704,0.8196954,1.8669177,5.170009864
49:46.4,1.42163E+12,3.254233,-0.11391312,1.515748,3.59172669
49:46.5,1.42163E+12,1.3498929,-1.8522482,1.198857,2.586559944
49:46.5,1.42163E+12,2.2791605,-8.903036,-2.6830206,9.573777841
49:46.5,1.42163E+12,5.35691,-17.360897,-1.4944922,18.22994066
49:46.5,1.42163E+12,-0.6782396,-19.27916,-3.9314246,19.68761333
49:46.5,1.42163E+12,-4.7747707,-19.540066,-3.458408,20.41012495
49:46.5,1.42163E+12,-4.506828,-19.575542,-4.5099716,20.58769504
49:46.5,1.42163E+12,1.493145,-19.580332,8.301587,21.31983185
49:46.6,1.42163E+12,2.274071,-19.581081,3.4129028,20.00595005
49:46.6,1.42163E+12,4.414021,-12.545113,3.9435494,13.87137424
49:46.6,1.42163E+12,2.6541307,-7.9987664,2.889591,8.90923172
49:46.6,1.42163E+12,0.8452922,-4.815336,3.6693196,6.112764188
49:46.6,1.42163E+12,-2.8892918,-1.4006374,4.1529636,5.249466534
49:46.7,1.42163E+12,-6.7235684,1.9118243,-0.3107538,6.997000222
49:46.7,1.42163E+12,-9.637559,4.562213,-3.5798059,11.24772605
49:46.7,1.42163E+12,-8.762329,6.2156744,-0.41628432,10.7511074
49:46.7,1.42163E+12,-4.6138554,3.251239,1.8067429,5.926426967
49:46.8,1.42163E+12,3.084336,-4.637955,-5.9288707,8.13481794
49:46.8,1.42163E+12,6.802155,-16.074772,-16.641195,24.11632183
49:46.8,1.42163E+12,3.8627174,-14.518159,-10.423724,18.28528229
49:46.8,1.42163E+12,-2.4345374,-2.8238778,11.419902,12.01313531
49:46.8,1.42163E+12,-7.644603,-9.956994,8.273894,15.03459366
49:46.8,1.42163E+12,-8.811276,-12.732373,7.7197466,17.30162982
49:46.9,1.42163E+12,-8.606053,-7.951016,5.7434063,13.04873632
49:46.9,1.42163E+12,-7.759414,-10.078542,6.946006,14.49249854
49:46.9,1.42163E+12,-3.5636394,-17.33081,12.462784,21.64203054
49:46.9,1.42163E+12,2.1915925,-19.275118,7.686516,20.86661879
49:46.9,1.42163E+12,8.619975,-18.429676,-8.769364,22.15533054
49:47.0,1.42163E+12,9.302405,-15.708783,-0.3598517,18.26006833
49:47.0,1.42163E+12,7.551197,-17.646954,0.8270302,19.21248398
49:47.0,1.42163E+12,4.386778,-18.199005,-4.740043,19.31102307
49:47.0,1.42163E+12,2.0972886,-13.59922,-9.151968,16.52561413
49:47.0,1.42163E+12,1.6344512,-12.3735695,-10.572215,16.35690628
49:47.1,1.42163E+12,-0.2776726,-9.024284,-9.037756,12.77481261
49:47.1,1.42163E+12,-1.6362474,-4.208648,-7.7371106,8.958398516
49:47.1,1.42163E+12,1.1302996,-2.0196002,-7.4956627,7.844827689
49:47.1,1.42163E+12,3.4763708,0.60983187,0.14639556,3.532489279
49:47.1,1.42163E+12,3.5049615,0.27901977,0.407303,3.539562527
49:47.2,1.42163E+12,1.624422,-1.0958711,0.07903565,1.9611035
49:47.2,1.42163E+12,2.8879445,-8.098908,-0.773741,8.633145971
49:47.2,1.42163E+12,5.8184004,-16.538807,0.6010002,17.54272275
49:47.2,1.42163E+12,-0.4456233,-19.167341,-4.090993,19.60412622
49:47.2,1.42163E+12,-5.357958,-19.524797,-4.545298,20.75054567
49:47.3,1.42163E+12,-5.28012,-19.573446,-3.192112,20.5228905
49:47.3,1.42163E+12,-0.7803273,-19.580183,1.5084132,19.65369653
49:47.3,1.42163E+12,1.7920734,-19.391275,4.4641666,19.97903543
49:47.3,1.42163E+12,4.4947033,-14.042,4.206852,15.33224463
49:47.3,1.42163E+12,3.5789077,-8.436756,2.4004083,9.473615579
49:47.4,1.42163E+12,1.0344987,-5.077591,3.4462833,6.223261726
49:47.4,1.42163E+12,-2.5950036,-1.8535954,4.6542716,5.641994658
49:47.4,1.42163E+12,-6.489455,2.0281324,1.7295035,7.015520621
49:47.4,1.42163E+12,-9.174272,5.8164544,-0.19444565,10.86444741
49:47.4,1.42163E+12,-8.660541,6.564,0.98794556,10.91178733
49:47.5,1.42163E+12,-5.6001544,2.75547,0.025896149,6.241395264
49:47.5,1.42163E+12,3.458109,-6.0032663,-9.426198,11.69833034
49:47.5,1.42163E+12,5.555697,-17.323027,-18.130747,25.68417841
49:47.5,1.42163E+12,2.5191114,-11.412867,-1.6175363,11.79897788
49:47.5,1.42163E+12,-2.9729676,3.8327796,15.487992,16.2298069
49:47.6,1.42163E+12,-5.4413347,-6.866371,8.117021,11.9432493
49:47.6,1.42163E+12,-11.887529,-17.706678,5.330565,21.98305517
49:47.6,1.42163E+12,-3.6148329,-9.726474,1.6979191,10.51447776
49:47.6,1.42163E+12,-4.1159906,-7.3910303,5.6026993,10.14686883
49:47.6,1.42163E+12,-2.8668385,-13.20988,11.213182,17.56289108
49:47.7,1.42163E+12,0.58483386,-18.154697,6.724017,19.36872372
49:47.7,1.42163E+12,5.5290523,-18.830393,-5.857619,20.48086473
49:47.7,1.42163E+12,8.258027,-14.692098,-0.8276289,16.87417326
49:47.8,1.42163E+12,7.147936,-17.087866,-0.19414628,18.5236564
49:47.8,1.42163E+12,5.133874,-18.769619,-5.2790723,20.16243696
49:47.8,1.42163E+12,3.1936088,-14.623839,-9.7112055,17.84273848
49:47.8,1.42163E+12,2.570305,-11.6615,-11.474389,16.56075641
49:47.8,1.42163E+12,1.8356328,-9.150771,-9.037007,12.99129144
49:47.8,1.42163E+12,-0.60713744,-4.7229786,-7.0257897,8.487453307
49:47.8,1.42163E+12,1.9124231,-1.2985497,-6.957532,7.331496775
49:47.9,1.42163E+12,3.566783,0.086071014,0.8403525,3.665452429
49:47.9,1.42163E+12,2.1306694,-0.07978409,1.3692027,2.53393639
49:47.9,1.42163E+12,-0.047601014,-0.44532394,0.038020935,0.449471756
49:47.9,1.42163E+12,-1.0144404,-3.5666332,-3.1383736,4.857916278
49:47.9,1.42163E+12,2.7075696,-12.7819195,-2.5809329,13.31801839
49:48.0,1.42163E+12,4.5795765,-18.639389,-1.3407619,19.24050378
49:48.0,1.42163E+12,-2.9898825,-19.320324,-5.133126,20.2129488
49:48.0,1.42163E+12,-5.178182,-19.54231,-3.7727544,20.56572694
49:48.0,1.42163E+12,-0.27527755,-19.575842,-0.90187454,19.59853937
49:48.1,1.42163E+12,2.9753628,-19.580482,3.4826577,20.10912638
49:48.1,1.42163E+12,4.272116,-16.940573,3.5916312,17.83630577
49:48.1,1.42163E+12,3.9695952,-11.438912,1.7333953,12.23155972
49:48.1,1.42163E+12,2.720892,-8.434211,2.1294718,9.114484002
49:48.1,1.42163E+12,-0.7342232,-4.1995173,2.632875,5.010694565
49:48.1,1.42163E+12,-5.345534,-0.16121475,0.44667113,5.366585417
49:48.2,1.42163E+12,-8.889713,3.0624816,-3.8083804,10.14443454
49:48.2,1.42163E+12,-9.349109,4.7848,-2.9253666,10.90219794
49:48.2,1.42163E+12,-5.923931,3.6920724,-0.07319778,6.980667233
49:48.2,1.42163E+12,-0.7978409,-1.9061362,-1.4727874,2.537520057
49:48.2,1.42163E+12,3.374283,-9.337583,-10.603351,14.52609013
49:48.3,1.42163E+12,4.027824,-12.675791,-16.24018,20.99148613
49:48.3,1.42163E+12,-0.51941985,-4.6267285,4.333638,6.360568521
49:48.3,1.42163E+12,-5.24644,-3.0401778,12.102932,13.53694119
49:48.3,1.42163E+12,-10.51219,-15.140265,6.9057393,19.68306374
49:48.3,1.42163E+12,-7.2361026,-17.294287,1.9850221,18.85189265
49:48.4,1.42163E+12,-3.4215848,-9.510174,4.899312,11.23182577
49:48.4,1.42163E+12,-3.0575418,-12.10862,8.441995,15.07429998
49:48.4,1.42163E+12,1.5923886,-14.883699,11.814182,19.06921849
49:48.4,1.42163E+12,4.0164475,-18.94221,-0.2748285,19.3652963
49:48.4,1.42163E+12,7.295379,-17.313745,-2.5445585,18.95951209
49:48.5,1.42163E+12,7.074139,-15.469431,2.6056316,17.20860407
49:48.5,1.42163E+12,4.6985793,-18.844763,-3.1485527,19.6752414
49:48.5,1.42163E+12,3.9459443,-18.762283,-5.7279887,20.01008731
49:48.5,1.42163E+12,1.4130615,-12.740605,-9.813593,16.1439266
49:48.5,1.42163E+12,1.1826906,-11.416309,-10.97398,15.87951842
49:48.6,1.42163E+12,0.95351714,-7.340136,-7.652087,10.64618368
49:48.6,1.42163E+12,-0.40281236,-3.2736924,-7.8011775,8.469810512
49:48.6,1.42163E+12,2.718347,-1.7582437,-5.2513795,6.169101877
49:48.6,1.42163E+12,5.2886524,0.34682876,0.67449737,5.342759689
49:48.6,1.42163E+12,4.307892,-0.5132826,1.4667997,4.579617219
49:48.7,1.42163E+12,2.4821384,-2.7312205,0.6557863,3.748417283
49:48.7,1.42163E+12,3.902834,-11.047926,-1.0642868,11.76526619
49:48.7,1.42163E+12,3.0811927,-17.85487,-2.3863375,18.27524932
49:48.8,1.42163E+12,-2.8240273,-19.346369,-4.6984296,20.10801742
49:48.8,1.42163E+12,-5.8050785,-19.549198,-5.191504,21.04333131
49:48.8,1.42163E+12,-2.364932,-19.57674,-1.3172607,19.76301668
49:48.8,1.42163E+12,2.8635452,-19.580631,7.3139405,21.09726824
49:48.8,1.42163E+12,3.0413754,-17.457747,1.877845,17.81991011
49:48.8,1.42163E+12,3.7082386,-10.227033,3.3022828,11.36874264
49:48.8,1.42163E+12,1.7206719,-7.8011775,4.4604244,9.149561082
49:48.9,1.42163E+12,-0.5508545,-4.5644584,4.000581,6.094453995
49:48.9,1.42163E+12,-4.7496233,-0.748743,4.152515,6.353181754
49:48.9,1.42163E+12,-8.743468,3.5703754,1.0328522,9.500662968
49:48.9,1.42163E+12,-10.161619,6.462661,0.8758287,12.07441774
49:48.9,1.42163E+12,-8.061037,7.61706,2.0514839,11.27867487
49:49.0,1.42163E+12,-2.0164568,2.339036,0.7366182,3.174869101
49:49.0,1.42163E+12,7.107969,-10.810669,-12.384197,17.90983313
49:49.0,1.42163E+12,4.888534,-18.388212,-17.832716,26.07738225
49:49.0,1.42163E+12,3.8847218,-9.132809,-2.5834777,10.25541909
49:49.1,1.42163E+12,-2.0686982,-3.138673,14.241085,14.72885883
49:49.1,1.42163E+12,-8.704848,-16.547789,9.537866,20.98986868
49:49.1,1.42163E+12,-5.8007374,-11.160642,6.687194,14.2452465
49:49.1,1.42163E+12,-7.6005945,-3.9648051,4.615053,9.735883649
49:49.1,1.42163E+12,-7.8769197,-8.572074,5.085824,12.70401206
49:49.1,1.42163E+12,-4.7081594,-17.067657,11.819122,21.28763315
49:49.2,1.42163E+12,0.3623964,-19.239191,5.8505836,20.11236261
49:49.2,1.42163E+12,7.9966707,-17.972826,-6.788533,20.80993506
49:49.2,1.42163E+12,10.754236,-16.584463,0.69575316,19.77832342
49:49.2,1.42163E+12,8.906778,-18.144817,-0.28171417,20.21495588
49:49.2,1.42163E+12,4.7794113,-19.339035,-5.7127204,20.72380808
49:49.3,1.42163E+12,3.6491117,-15.459552,-9.394165,18.45437889
49:49.3,1.42163E+12,2.4848328,-11.971056,-12.813804,17.71084834
49:49.3,1.42163E+12,0.02350113,-8.828641,-11.31512,14.35191258
49:49.3,1.42163E+12,-2.2520669,-3.3784745,-8.547376,9.462744409
49:49.3,1.42163E+12,0.7827223,-1.0885364,-3.4194891,3.672937707
49:49.4,1.42163E+12,3.7827837,0.84349597,0.16525635,3.879207088
49:49.4,1.42163E+12,4.5575724,0.291893,-0.50130755,4.594341842
49:49.4,1.42163E+12,3.9525306,-1.9555335,0.5252577,4.441002709
49:49.4,1.42163E+12,4.061953,-5.803581,2.29383,7.445983526
49:49.4,1.42163E+12,7.455995,-15.09012,4.06345,17.3151728
49:49.5,1.42163E+12,3.7583845,-18.970201,-1.1412268,19.37256768
49:49.5,1.42163E+12,-2.570754,-19.455643,-3.0972092,19.86765023
49:49.5,1.42163E+12,-5.7547827,-19.564016,-2.3569987,20.5286066
49:49.5,1.42163E+12,-5.664371,-19.578836,-3.9630089,20.76346208
49:49.5,1.42163E+12,-1.6012203,-19.580782,3.0154793,19.87621809
49:49.6,1.42163E+12,1.8720071,-19.310293,3.7591329,19.76165242
49:49.6,1.42163E+12,4.074377,-10.751243,2.3782544,11.740778
49:49.6,1.42163E+12,2.389032,-6.173612,2.2960753,7.006634057
49:49.6,1.42163E+12,-0.7695497,-3.1798375,4.500691,5.564152473
49:49.6,1.42163E+12,-4.176016,0.22602996,1.7633331,4.53867192
49:49.7,1.42163E+12,-7.5208106,3.3838632,-2.6744883,8.669833326
49:49.7,1.42163E+12,-8.788525,5.009333,-0.12992981,10.11674209
49:49.7,1.42163E+12,-6.735693,4.001778,1.2741504,7.937710413
49:49.7,1.42163E+12,-1.7486637,-1.2308904,-3.7303927,4.299854138
49:49.7,1.42163E+12,2.597249,-11.0299635,-14.921271,18.7363317
49:49.8,1.42163E+12,3.459456,-15.472574,-13.880785,21.07236518
49:49.8,1.42163E+12,0.32976425,-3.2380664,7.7169027,8.375225714
49:49.8,1.42163E+12,-3.035388,-8.46325,9.6847105,13.21490819
49:49.8,1.42163E+12,-7.688911,-17.954264,7.084917,20.7766936
49:49.8,1.42163E+12,-4.3156757,-11.365715,6.7741632,13.91739276
49:49.9,1.42163E+12,-6.082152,-7.2889423,6.4491887,11.47664096
49:49.9,1.42163E+12,-3.8564305,-13.009297,10.189311,16.96867477
49:49.9,1.42163E+12,-1.0234218,-17.488882,9.652228,20.00184719
49:49.9,1.42163E+12,2.73616,-19.296522,-2.7378068,19.68090239
49:49.9,1.42163E+12,6.806945,-15.52781,-5.579048,17.84861788
49:50.0,1.42163E+12,7.135661,-17.375866,0.37990996,18.78783406
49:50.0,1.42163E+12,5.306615,-18.913769,-4.4634185,20.14479896
49:50.0,1.42163E+12,3.8386176,-15.818505,-7.7942915,18.04746701
49:50.1,1.42163E+12,3.1479537,-11.269316,-8.853339,14.67271982
49:50.1,1.42163E+12,2.6652076,-9.347761,-9.152567,13.35115912
49:50.1,1.42163E+12,0.26973906,-5.401817,-7.492669,9.240804879
49:50.1,1.42163E+12,-0.33650026,-2.821333,-6.970555,7.527402562
49:50.1,1.42163E+12,2.5173151,-0.43065444,-1.2301419,2.834711212
49:50.1,1.42163E+12,3.4875975,0.03502716,1.1542497,3.67380669
49:50.1,1.42163E+12,2.1037252,-1.0861413,-0.6156697,2.44630575
49:50.2,1.42163E+12,2.0938458,-7.3203773,-2.624193,8.053477693
49:50.2,1.42163E+12,4.5470943,-16.308735,0.472717,16.93736595
49:50.2,1.42163E+12,-0.37047958,-19.136057,-3.5295103,19.46235791
49:50.2,1.42163E+12,-5.014722,-19.520607,-5.755232,20.96006273
49:50.2,1.42163E+12,-4.67897,-19.572847,-3.5058596,20.42743624
49:50.3,1.42163E+12,0.6119275,-19.580032,4.910239,20.19560733
49:50.3,1.42163E+12,1.8031503,-18.828596,3.8914576,19.31089901
49:50.3,1.42163E+12,3.9950423,-12.338991,3.1045442,13.33601352
49:50.3,1.42163E+12,3.0928683,-7.4109387,3.1986983,8.644045208
49:50.3,1.42163E+12,1.0871892,-4.6622047,4.2785525,6.420603127
49:50.4,1.42163E+12,-1.9863694,-2.1487815,4.6681924,5.50953225
49:50.4,1.42163E+12,-5.9826093,2.1282742,0.8650511,6.408547301
49:50.4,1.42163E+12,-8.825348,5.7237973,-2.0585194,10.71849453
49:50.4,1.42163E+12,-8.656199,6.805897,-0.20672013,11.0132987
49:50.4,1.42163E+12,-3.9068756,3.2153137,-0.5040019,5.084873357
49:50.5,1.42163E+12,2.893483,-5.637876,-10.214608,12.02065332
49:50.5,1.42163E+12,4.2978625,-15.664775,-18.275047,24.45064704
49:50.5,1.42163E+12,1.7251625,-11.141631,-0.199086,11.27615902
49:50.5,1.42163E+12,-4.0444393,-8.74257,14.230008,17.18380479
49:50.5,1.42163E+12,-7.39597,-16.961529,8.433612,20.33518256
49:50.6,1.42163E+12,-6.4488893,-9.31483,6.321205,12.97350623
49:50.6,1.42163E+12,-8.9204,-4.882696,4.237987,11.01702275
49:50.6,1.42163E+12,-6.975045,-11.590997,8.870704,16.17689258
49:50.6,1.42163E+12,-2.233655,-18.362915,14.177019,23.30608782
49:50.6,1.42163E+12,5.4236712,-19.415375,-2.9571006,20.37443103
49:50.7,1.42163E+12,10.8418045,-16.643888,-5.1187553,20.5125666
49:50.7,1.42163E+12,9.913585,-15.559394,3.2549813,18.73416164
49:50.7,1.42163E+12,5.878725,-18.695822,-4.283193,20.06088009
49:50.7,1.42163E+12,3.234474,-17.60968,-9.003777,20.04072484
49:50.7,1.42163E+12,1.2472064,-12.203822,-9.574689,15.56160225
49:50.8,1.42163E+12,-0.27617568,-9.560319,-10.065219,13.88468962
49:50.8,1.42163E+12,-1.6187339,-5.4971685,-6.48721,8.65581045
49:50.8,1.42163E+12,-0.5195696,-2.2406905,-8.392148,8.701654701
49:50.8,1.42163E+12,3.0202694,-0.08008347,-2.7517278,4.086617978
49:50.8,1.42163E+12,4.718338,0.640518,1.7543519,5.074517453
49:50.9,1.42163E+12,3.8197567,-0.6996451,0.82104266,3.969150484
49:50.9,1.42163E+12,1.6971707,-3.2600706,-0.95980406,3.79864088
49:50.9,1.42163E+12,2.973716,-11.563454,-0.77269316,11.9646776
49:50.9,1.42163E+12,3.6823425,-18.279688,-0.97686857,18.672464
49:50.9,1.42163E+12,-3.5588493,-19.404148,-1.970652,19.82598894
49:51.0,1.42163E+12,-6.1101437,-19.55713,-3.5188825,20.78936564
49:51.0,1.42163E+12,-4.2363405,-19.574495,-3.9314246,20.40988816
49:51.1,1.42163E+12,2.1839585,-19.580183,8.272397,21.36786824
49:51.1,1.42163E+12,3.3287778,-19.159708,4.4970984,19.95993653
49:51.1,1.42163E+12,4.0215373,-12.6356735,4.191284,13.90682813
49:51.1,1.42163E+12,2.7369087,-7.802824,3.520529,8.987149495
49:51.1,1.42163E+12,-0.006436615,-4.2408314,4.2073007,5.973782016
49:51.1,1.42163E+12,-3.8318815,-0.34293687,3.6568954,5.30790029
49:51.1,1.42163E+12,-6.8880763,3.3181498,-0.7731422,7.684625044
49:51.1,1.42163E+12,-8.322992,5.649851,-1.4421011,10.16231606
49:51.2,1.42163E+12,-7.0918026,5.927973,-0.084424436,9.243465556
49:51.2,1.42163E+12,-3.02955,1.121917,-2.170786,3.892195115
49:51.2,1.42163E+12,2.9147387,-7.5916133,-12.876224,15.22909842
49:51.2,1.42163E+12,4.542903,-14.136752,-16.4701,22.17543503
49:51.2,1.42163E+12,0.7789801,-5.415289,6.7603917,8.696842007
49:51.3,1.42163E+12,-1.9896625,-0.4948709,13.5941305,13.74787395
49:51.3,1.42163E+12,-9.103619,-12.795392,9.238189,18.21927746
49:51.3,1.42163E+12,-6.6527653,-18.19167,-2.396217,19.51763304
49:51.3,1.42163E+12,-2.0963905,-6.1661277,1.3513898,6.65148392
49:51.3,1.42163E+12,-4.1082067,-6.0198817,5.947432,9.406821215
49:51.4,1.42163E+12,-3.1593301,-12.287947,10.924433,16.7427072
49:51.4,1.42163E+12,0.41418868,-18.22056,7.5890684,19.74219639
49:51.4,1.42163E+12,6.117778,-19.35101,-4.3626776,20.75865486
49:51.4,1.42163E+12,8.78104,-13.387561,-2.6074278,16.22134806
49:51.4,1.42163E+12,6.070177,-15.221546,0.46403503,16.39383543
49:51.5,1.42163E+12,4.291875,-18.592087,-3.1760952,19.34356407
49:51.5,1.42163E+12,2.5393195,-18.28792,-5.9933867,19.4117708
49:51.5,1.42163E+12,0.027243348,-11.116483,-13.176499,17.23940435
49:51.5,1.42163E+12,0.7551796,-10.047706,-12.947026,16.40585793
49:51.5,1.42163E+12,-0.8909473,-5.1630635,-5.8389077,7.84498916
49:51.6,1.42163E+12,1.0708731,-2.0965402,-7.398964,7.764465099
49:51.6,1.42163E+12,4.432882,-0.07469467,-0.04086502,4.433699592
49:51.6,1.42163E+12,4.7282176,-0.5957611,2.3381379,5.308282378
49:51.6,1.42163E+12,2.3324497,-0.9701326,0.51552796,2.578225735
49:51.7,1.42163E+12,0.6147716,-3.6815941,-1.6395406,4.076784593
49:51.7,1.42163E+12,2.5396187,-12.828473,-3.5151403,13.5416245
49:51.7,1.42163E+12,4.171226,-18.534607,-0.9403446,19.02143609
49:51.7,1.42163E+12,-2.7860065,-19.438726,-2.7900481,19.83457257
49:51.7,1.42163E+12,-6.3352757,-19.558477,-3.6326458,20.87740061
49:51.7,1.42163E+12,-3.8047879,-19.578087,-3.6473153,20.27512788
49:51.8,1.42163E+12,0.5556445,-19.580782,8.445887,21.3318722
49:51.8,1.42163E+12,2.5128245,-17.663418,4.111949,18.30897995
49:51.8,1.42163E+12,3.6627333,-12.2472315,1.9669098,12.93363943
49:51.8,1.42163E+12,2.418371,-7.945926,2.2650898,8.609116685
49:51.8,1.42163E+12,-0.011526031,-3.8854702,3.4319134,5.184114303
49:51.9,1.42163E+12,-4.1867933,0.27617568,2.8659403,5.081252301
49:51.9,1.42163E+12,-7.8381505,3.5199304,-2.0621119,8.836221974
49:51.9,1.42163E+12,-8.759335,6.0369463,-2.0930974,10.84212742
49:51.9,1.42163E+12,-6.370602,5.570516,-0.2532733,8.466366736
49:52.0,1.42163E+12,-1.9166144,-0.49292496,-3.368595,3.906893657
49:52.0,1.42163E+12,3.5655854,-9.792935,-12.207564,16.05115553
49:52.0,1.42163E+12,3.0903237,-14.341976,-14.331647,20.50947298
49:52.0,1.42163E+12,1.183439,-8.170909,1.660497,8.421492269
49:52.0,1.42163E+12,-3.405119,-2.502496,12.54616,13.23871037
49:52.0,1.42163E+12,-9.578281,-15.509847,7.99233,19.90417443
49:52.1,1.42163E+12,-7.2588553,-15.788118,2.6158104,17.57265245
49:52.1,1.42163E+12,-4.0790176,-6.9165173,5.5783,9.777219801
49:52.1,1.42163E+12,-4.2261615,-10.903925,9.558074,15.10340359
49:52.1,1.42163E+12,-0.90591615,-15.143858,11.791729,19.21462963
49:52.1,1.42163E+12,2.3661296,-18.940563,0.17992584,19.08863194
49:52.2,1.42163E+12,6.4704447,-17.02769,-4.949907,18.87618766
49:52.2,1.42163E+12,6.4156585,-14.220728,2.4206164,15.78762688
49:52.2,1.42163E+12,5.535489,-17.50385,-1.6227754,18.42986173
49:52.2,1.42163E+12,4.986281,-18.967506,-6.815178,20.7623682
49:52.2,1.42163E+12,3.1476545,-14.08017,-11.052267,18.17447446
49:52.3,1.42163E+12,2.169738,-10.948832,-9.194779,14.46128093
49:52.3,1.42163E+12,0.7445517,-7.919581,-7.340585,10.82396917
49:52.3,1.42163E+12,-0.1393602,-3.7268,-7.6342745,8.496505555
49:52.3,1.42163E+12,2.4893234,-2.2659879,-6.9960017,7.763727967
49:52.3,1.42163E+12,3.6110907,-0.594863,-0.14804214,3.662752313
49:52.4,1.42163E+12,2.1517754,-0.48469207,2.8961773,3.640454193
49:52.4,1.42163E+12,0.58707917,-2.0230432,0.46134064,2.156432454
49:52.4,1.42163E+12,2.8928843,-11.980038,-3.4313145,12.79312351
49:52.4,1.42163E+12,5.281467,-18.496737,-0.9066646,19.25734182
49:52.4,1.42163E+12,-2.1395009,-19.433638,-4.286486,20.01543685
49:52.5,1.42163E+12,-6.307284,-19.561022,-4.9277525,21.13523498
49:52.5,1.42163E+12,-2.5197103,-19.578386,-3.1033466,19.98231464
49:52.5,1.42163E+12,0.93345886,-19.580782,5.945187,20.48471668
49:52.5,1.42163E+12,3.9597158,-17.327517,5.773045,18.6882381
49:52.5,1.42163E+12,3.8558319,-9.713151,2.9412336,10.85650022
49:52.6,1.42163E+12,2.2585034,-6.2252545,4.0574627,7.766442864
49:52.6,1.42163E+12,-0.7203021,-2.3873854,3.822152,4.563692592
49:52.6,1.42163E+12,-4.431535,1.4191988,1.7468674,4.970329305
49:52.7,1.42163E+12,-8.128098,4.6608577,-2.1248314,9.607522057
49:52.7,1.42163E+12,-9.436526,6.8383794,-2.164948,11.85320444
49:52.7,1.42163E+12,-5.711074,6.0460773,1.0725197,8.385804401
49:52.7,1.42163E+12,-0.17438737,-1.4184504,-0.26824218,1.454086091
49:52.7,1.42163E+12,4.102818,-13.060491,-12.0462,18.23514396
49:52.7,1.42163E+12,4.895869,-18.543737,-17.39802,25.89460977
49:52.7,1.42163E+12,0.4830455,-1.7441729,8.80514,8.989213674
49:52.8,1.42163E+12,-5.9878483,1.6239729,10.4726715,12.1724469
49:52.8,1.42163E+12,-13.427977,-13.36376,9.38683,21.14268727
49:52.8,1.42163E+12,-10.879376,-15.919246,1.8603314,19.37121701
49:52.8,1.42163E+12,-4.2117915,-8.253686,4.6099634,10.34960303
49:52.8,1.42163E+12,-0.61073,-16.16204,10.291998,19.17054383
49:52.9,1.42163E+12,5.579647,-19.104921,7.8038716,21.37828054
49:52.9,1.42163E+12,7.398814,-19.516415,-4.88569,21.43601805
49:52.9,1.42163E+12,7.0644093,-16.456778,2.0920496,18.03075407
49:53.0,1.42163E+12,4.797374,-16.720978,0.41598496,17.40054442
49:53.0,1.42163E+12,3.8055363,-18.914368,-4.270769,19.76043753
49:53.0,1.42163E+12,2.7463388,-16.105608,-6.955436,17.75700075
49:53.0,1.42163E+12,1.0520123,-11.942017,-9.817036,15.49492484
49:53.0,1.42163E+12,-0.06780899,-9.828412,-11.608211,15.21028741
49:53.0,1.42163E+12,-2.4186704,-5.0196614,-6.081254,8.247946247
49:53.0,1.42163E+12,-0.981509,-3.6428246,-7.5702076,8.458225233
49:53.1,1.42163E+12,2.586172,-1.3659096,-1.6423846,3.354313912
49:53.1,1.42163E+12,4.668342,0.60773623,0.03382965,4.707855648
49:53.1,1.42163E+12,4.203858,-1.8482066,0.8298743,4.666581305
49:53.1,1.42163E+12,4.519701,-7.4419246,1.457519,8.828040582
49:53.1,1.42163E+12,6.8787956,-14.792389,2.8226802,16.55596946
49:53.2,1.42163E+12,1.4334192,-18.929785,-1.9143691,19.08025838
49:53.2,1.42163E+12,-4.08261,-19.492615,-2.75068,20.10462595
49:53.2,1.42163E+12,-5.3173923,-19.569105,-3.2844698,20.54293731
49:53.2,1.42163E+12,-5.3224816,-19.579584,-2.3882835,20.43019378
49:53.2,1.42163E+12,0.2547702,-19.58093,8.57402,21.37736061
49:53.3,1.42163E+12,1.1996055,-19.385437,2.556833,19.59008974
49:53.3,1.42163E+12,3.041076,-10.957514,1.9660116,11.54038379
49:53.3,1.42163E+12,1.8227595,-6.318211,3.7694614,7.579649179
49:53.3,1.42163E+12,1.50E-04,-3.2403116,5.512886,6.394648648
49:53.3,1.42163E+12,-3.1000533,-0.11061996,3.7333863,4.853940719
49:53.4,1.42163E+12,-6.859935,3.849994,-0.5957611,7.888985568
49:53.4,1.42163E+12,-8.817863,5.9092617,0.6556366,10.63503367
49:53.4,1.42163E+12,-7.224876,6.112539,1.0668315,9.523659785
49:53.4,1.42163E+12,-2.6032364,1.6040643,-2.8753707,4.197334713
49:53.4,1.42163E+12,2.5780888,-9.431138,-14.633719,17.5993931
49:53.5,1.42163E+12,2.9777577,-16.206799,-15.870148,22.87769596
49:53.5,1.42163E+12,1.1558963,-3.583997,9.10796,9.855763091
49:53.5,1.42163E+12,-0.988694,-8.143366,13.082794,15.44187244
49:53.5,1.42163E+12,-7.760013,-17.79275,7.5694594,20.83498188
49:53.5,1.42163E+12,-3.982618,-9.89652,4.383634,11.53336903
49:53.6,1.42163E+12,-5.777835,-6.1037073,5.2531757,9.911330639
49:53.6,1.42163E+12,-4.12602,-12.57969,10.39199,16.83051092
49:53.6,1.42163E+12,-0.61073,-17.536781,9.047485,19.74255971
49:53.6,1.42163E+12,4.104764,-19.273022,-5.3371515,20.41527983
49:53.6,1.42163E+12,7.9430823,-14.432387,-3.1490016,16.77207685
49:53.7,1.42163E+12,7.6116714,-16.6388,1.1549982,18.33360924
49:53.7,1.42163E+12,4.984185,-19.027233,-3.8872664,20.04965176
49:53.7,1.42163E+12,4.131109,-16.540005,-7.401808,18.58560165
49:53.7,1.42163E+12,3.8022432,-11.341615,-10.878478,16.16881467
49:53.7,1.42163E+12,2.1680915,-10.145303,-10.150093,14.51386171
49:53.8,1.42163E+12,-1.6067587,-5.053641,-5.5184245,7.653363302
49:53.8,1.42163E+12,-0.5869295,-2.5161178,-7.5073385,7.93948779
49:53.8,1.42163E+12,2.7388544,-0.22662872,-1.3620176,3.067209798
49:53.8,1.42163E+12,2.7662475,-0.26749375,-0.14923966,2.783154795
49:53.8,1.42163E+12,1.1548485,-0.48244676,-0.8788225,1.529300141
49:53.9,1.42163E+12,1.5461348,-4.357289,-0.6737489,4.672305408
49:53.9,1.42163E+12,5.781577,-15.08533,-0.07529343,16.15547842
49:53.9,1.42163E+12,4.10192,-18.969603,-0.82867676,19.42571211
49:54.0,1.42163E+12,-2.4740553,-19.276464,-2.9518616,19.65747951
49:54.0,1.42163E+12,-4.554429,-19.536324,-3.4126034,20.34838178
49:54.0,1.42163E+12,-2.7192452,-19.53288,-1.6477734,19.78996849
49:54.0,1.42163E+12,0.76356214,-19.574644,6.390062,20.60540238
49:54.0,1.42163E+12,2.209256,-18.048569,3.4756224,18.51247164
49:54.0,1.42163E+12,2.396217,-12.122841,1.938918,12.50857837
49:54.0,1.42163E+12,1.730701,-9.031619,2.575544,9.549811234
49:54.1,1.42163E+12,0.060773622,-4.3360333,3.2239957,5.403612355
49:54.1,1.42163E+12,-3.6682718,-0.04685257,1.1505075,3.844747153
49:54.1,1.42163E+12,-6.9250493,2.7363098,-2.4475603,7.838000418
49:54.1,1.42163E+12,-8.693622,4.2224193,-1.2067904,9.739827067
49:54.1,1.42163E+12,-7.781568,4.0421944,0.8903485,8.813901324
49:54.2,1.42163E+12,-4.355792,-0.017663268,-0.020207977,4.355874688
49:54.2,1.42163E+12,2.2650898,-6.9835777,-8.885673,11.52632526
49:54.2,1.42163E+12,2.417323,-15.180831,-16.323555,22.4222998
49:54.2,1.42163E+12,1.6953745,-11.174562,-6.456823,13.01674667
49:54.2,1.42163E+12,-1.3211527,-0.08322693,12.978761,13.04609552
49:54.3,1.42163E+12,-6.662645,-15.280225,6.252348,17.8035943
49:54.3,1.42163E+12,-5.619165,-17.586927,7.602391,19.96675651
49:54.3,1.42163E+12,-3.8121226,-6.265072,6.5541205,9.835644433
49:54.3,1.42163E+12,-4.5291314,-8.46849,8.691975,12.95294497
49:54.3,1.42163E+12,-0.726589,-16.4222,12.812306,20.8415875
49:54.4,1.42163E+12,1.2590318,-19.151474,-1.4919475,19.25071492
49:54.4,1.42163E+12,5.5048027,-16.06594,-5.4060082,17.82251962
49:54.4,1.42163E+12,6.2291465,-14.47939,5.4236712,16.6694694
49:54.4,1.42163E+12,5.4356465,-17.809664,-1.2729529,18.664158
49:54.4,1.42163E+12,4.9817905,-19.34023,-5.1352215,20.62118408
49:54.5,1.42163E+12,4.20296,-16.585659,-7.505991,18.68391977
49:54.5,1.42163E+12,4.201912,-11.84412,-11.837983,17.26490905
49:54.5,1.42163E+12,1.9986438,-10.052496,-10.125244,14.40721413
49:54.5,1.42163E+12,-0.43888733,-4.069138,-6.5526237,7.725761031
49:54.5,1.42163E+12,1.006956,-1.5733781,-6.450237,6.715283791
49:54.6,1.42163E+12,3.734135,0.2468367,-1.3419594,3.975619145
49:54.6,1.42163E+12,2.9556038,-0.4604425,2.2700295,3.755081231
49:54.6,1.42163E+12,0.9714798,-0.52480865,0.11091934,1.109729796
49:54.6,1.42163E+12,0.91130495,-3.58265,-1.8357825,4.127463522
49:54.6,1.42163E+12,4.441264,-12.742252,-2.7027795,13.76207938
49:54.7,1.42163E+12,5.30407,-18.607056,-0.45415556,19.35360299
49:54.7,1.42163E+12,-1.9806812,-19.448606,-3.4697845,19.85474195
49:54.7,1.42163E+12,-5.326224,-19.563118,-3.8992414,20.64675111
49:54.7,1.42163E+12,-2.4492068,-19.578686,-1.343606,19.77697744
49:54.7,1.42163E+12,0.2972818,-19.580782,4.889133,20.18412796
49:54.8,1.42163E+12,3.1123278,-17.434845,4.243825,18.21182185
49:54.8,1.42163E+12,3.6562967,-10.850337,2.3379881,11.68608176
49:54.8,1.42163E+12,2.3379881,-8.060887,2.8638446,8.86824072
49:54.8,1.42163E+12,-0.6683601,-3.3446448,3.906726,5.186122068
49:54.8,1.42163E+12,-4.9672704,0.21719833,1.3817766,5.160451232
49:54.9,1.42163E+12,-8.478668,3.1986983,-3.013683,9.549961628
49:54.9,1.42163E+12,-9.483379,4.9088917,-1.0259665,10.72773519
49:54.9,1.42163E+12,-7.1702394,4.256249,0.9077124,8.387605761
49:54.9,1.42163E+12,-2.2022204,-0.35476226,-2.4080424,3.282422756
49:54.9,1.42163E+12,2.155817,-9.341175,-13.830639,16.82829975
49:55.0,1.42163E+12,2.8816576,-15.069463,-12.645404,19.88212534
49:55.0,1.42163E+12,-0.7414082,-7.465126,6.706504,10.06255376
49:55.0,1.42163E+12,-4.987628,-12.925322,10.168654,17.18551442
49:55.0,1.42163E+12,-5.9637485,-16.282091,6.5873513,18.54901562
49:55.0,1.42163E+12,-3.997138,-7.7332187,6.5701375,10.90625923
49:55.1,1.42163E+12,-5.802234,-6.427933,6.7788033,10.99710945
49:55.1,1.42163E+12,-3.9279816,-13.522879,11.567795,18.22391772
49:55.1,1.42163E+12,-0.06451584,-18.757044,6.201005,19.75558971
49:55.1,1.42163E+12,5.466632,-18.626366,-6.41985,20.44602773
49:55.1,1.42163E+12,7.563322,-14.371315,1.7579443,16.33489831
49:55.2,1.42163E+12,6.9283423,-16.244669,0.9780661,17.68750438
49:55.2,1.42163E+12,4.754413,-19.096987,-5.432802,20.41604009
49:55.2,1.42163E+12,3.7251534,-16.569044,-6.810088,18.29719338
49:55.3,1.42163E+12,3.5774107,-11.909983,-11.120824,16.68287412
49:55.3,1.42163E+12,3.0223649,-10.468631,-9.571995,14.50344831
49:55.3,1.42163E+12,0.4830455,-5.973179,-8.094268,10.07121516
49:55.3,1.42163E+12,0.751138,-3.5233731,-8.788823,9.498514411
49:55.3,1.42163E+12,4.1703277,-1.1141331,-3.3465908,5.461922342
49:55.3,1.42163E+12,4.839287,-0.47062135,1.9164647,5.226185996
49:55.3,1.42163E+12,2.720293,-0.99737597,1.778302,3.399575096
49:55.4,1.42163E+12,2.8377988,-5.181625,-0.0875679,5.908469159
49:55.4,1.42163E+12,6.175857,-16.286432,-1.0568024,17.45009766
49:55.4,1.42163E+12,2.181264,-19.132914,-2.2574556,19.3887188
49:55.4,1.42163E+12,-3.554209,-19.520157,-3.321443,20.11717959
49:55.4,1.42163E+12,-6.173013,-19.572847,-3.3585658,20.79621104
49:55.5,1.42163E+12,-3.1292427,-19.580032,-0.61117905,19.83792713
49:55.5,1.42163E+12,0.34323624,-19.58093,4.4316845,20.07910502
49:55.5,1.42163E+12,3.3871565,-15.958614,4.7764173,16.9989515
49:55.5,1.42163E+12,4.1748185,-9.539063,3.7823346,11.07830707
49:55.5,1.42163E+12,2.1541703,-5.940397,4.9928675,8.053414932
49:55.6,1.42163E+12,-0.98570025,-2.3126907,6.446794,6.919631214
49:55.6,1.42163E+12,-5.3197875,1.7836908,1.5479311,5.820462405
49:55.6,1.42163E+12,-8.5469265,5.341642,-2.2713766,10.33161379
49:55.6,1.42163E+12,-8.97294,6.7383876,-1.7812958,11.36188956
49:55.6,1.42163E+12,-6.983428,4.6186457,-0.97237796,8.428859569
49:55.7,1.42163E+12,0.42376876,-5.452861,-8.568931,10.16562106
49:55.7,1.42163E+12,2.945874,-15.959512,-17.771345,24.06667613
49:55.7,1.42163E+12,1.0762619,-10.827734,-3.7278478,11.5019569
49:55.7,1.42163E+12,-1.7818946,2.5527914,14.970967,15.29123099
49:55.7,1.42163E+12,-3.8733454,-3.032544,11.484268,12.49349988
49:55.8,1.42163E+12,-12.986245,-16.232695,1.9764899,20.8817973
49:55.8,1.42163E+12,-1.8959574,-14.265335,2.5773404,14.61975105
49:55.8,1.42163E+12,-0.49337402,-6.5973806,6.085146,8.988762459
49:55.8,1.42163E+12,-1.3274395,-10.205627,9.520203,14.0196713
49:55.8,1.42163E+12,0.24204665,-14.910644,11.009306,18.53619998
49:55.9,1.42163E+12,0.508792,-18.93233,1.2939093,18.98331346
49:55.9,1.42163E+12,6.091732,-16.005466,-6.0620937,18.16681372
49:55.9,1.42163E+12,7.36708,-14.548845,1.6780106,16.39385489
49:55.9,1.42163E+12,4.5075765,-17.009579,-4.190386,18.08876332
49:55.9,1.42163E+12,2.805915,-16.786991,-6.4297295,18.19389038
49:56.0,1.42163E+12,1.8857785,-12.480746,-9.850566,16.01120957
49:56.0,1.42163E+12,3.3385077,-9.938133,-10.882071,15.11064494
49:56.0,1.42163E+12,2.6316774,-7.0349207,-7.9999638,10.97338854
49:56.0,1.42163E+12,0.86729646,-3.3429983,-7.5170684,8.272494069
49:56.0,1.42163E+12,3.166515,-1.1506572,-4.045637,5.264789452
49:56.1,1.42163E+12,3.0741572,-0.6092331,0.37826338,3.156689824
49:56.1,1.42163E+12,0.7402107,-0.35057098,-1.4476396,1.663271566
49:56.1,1.42163E+12,-0.7728429,-3.4564621,-2.1695883,4.153496092
49:56.1,1.42163E+12,2.6375153,-13.984968,-2.6200018,14.47066779
49:56.1,1.42163E+12,4.74154,-18.819914,-0.497715,19.41440405
49:56.2,1.42163E+12,-2.131268,-19.477646,-3.2154634,19.85598655
49:56.2,1.42163E+12,-5.0666637,-19.56701,-4.6228366,20.73426101
49:56.3,1.42163E+12,-3.4890945,-19.579285,-2.6595194,20.06477573
49:56.3,1.42163E+12,1.5368541,-19.58093,9.094638,21.64456469
49:56.3,1.42163E+12,4.1565566,-16.798965,4.5412564,17.89148394
49:56.3,1.42163E+12,5.372029,-10.503358,2.2830524,12.01630364
49:56.3,1.42163E+12,2.6463468,-7.7781253,4.394711,9.317503386
49:56.3,1.42163E+12,-1.3973442,-3.096311,6.03979,6.929558129
49:56.3,1.42163E+12,-5.223837,1.3263917,2.3037095,5.861302364
49:56.3,1.42163E+12,-8.245604,5.2452426,-2.3302042,10.04651217
49:56.4,1.42163E+12,-8.71802,6.7961674,-0.30416748,11.05822237
49:56.4,1.42163E+12,-7.0244427,5.305567,0.38934037,8.811550508
49:56.4,1.42163E+12,-0.624651,-2.138453,-5.8511825,6.260950946
49:56.4,1.42163E+12,5.103936,-14.72443,-17.02365,23.07950738
49:56.4,1.42163E+12,4.2891808,-15.47961,-8.747061,18.29006489
49:56.5,1.42163E+12,-0.04939728,-3.7812867,11.218571,11.83878813
49:56.5,1.42163E+12,-4.7864466,-12.137361,8.209528,15.41499118
49:56.5,1.42163E+12,-7.891739,-15.090718,6.6906366,18.29682848
49:56.5,1.42163E+12,-6.2990513,-7.058572,6.9513946,11.73981997
49:56.6,1.42163E+12,-7.4741077,-7.720645,7.1004844,12.87973307
49:56.6,1.42163E+12,-5.5178256,-15.481855,10.963501,19.75683648
49:56.6,1.42163E+12,-3.0151799,-18.892962,6.7397346,20.28446069
49:56.6,1.42163E+12,2.3315516,-18.891464,-6.247708,20.03390626
49:56.6,1.42163E+12,7.502249,-16.028667,-1.8952088,17.79870002
49:56.6,1.42163E+12,9.913136,-18.075062,2.1622536,20.72808414
49:56.7,1.42163E+12,7.6953473,-19.284548,-4.491111,21.24340462
49:56.7,1.42163E+12,5.3127522,-15.962505,-8.387808,18.79846336
49:56.7,1.42163E+12,5.23686,-12.205618,-8.867709,15.96991159
49:56.7,1.42163E+12,2.9157865,-10.421628,-9.549841,14.43300399
49:56.7,1.42163E+12,-0.26794282,-5.111271,-6.140231,7.993705106
49:56.8,1.42163E+12,0.53289187,-2.6285338,-8.393945,8.812007509
49:56.8,1.42163E+12,4.2411304,-0.8120613,-3.996539,5.883787437
49:56.8,1.42163E+12,4.3134303,-0.42556503,0.8080197,4.409045518
49:56.8,1.42163E+12,1.8275496,-1.4370117,0.96414506,2.516846412
49:56.8,1.42163E+12,2.7087672,-8.611892,-2.2665865,9.308035127
49:56.9,1.42163E+12,6.008206,-17.492325,-0.4963678,18.50206351
49:56.9,1.42163E+12,-0.9253757,-19.296972,-2.0279827,19.42529697
49:56.9,1.42163E+12,-4.800218,-19.542461,-3.30363,20.39274003
49:56.9,1.42163E+12,-5.272336,-19.575842,-3.7586837,20.61889473
49:56.9,1.42163E+12,-1.3846207,-19.580482,1.9911593,19.73010809
49:57.0,1.42163E+12,1.6027172,-19.550993,5.4923787,20.37096594
49:57.0,1.42163E+12,4.381688,-14.477144,4.6589117,15.82695
49:57.0,1.42163E+12,3.2967443,-8.150102,2.990182,9.286219574
49:57.0,1.42163E+12,1.0850935,-4.833299,4.09698,6.428331996
49:57.0,1.42163E+12,-2.8803103,-1.2795392,4.0902443,5.163671797
49:57.1,1.42163E+12,-6.3469515,1.7567468,0.9592053,6.655075317
49:57.1,1.42163E+12,-8.68973,4.8190784,-0.77194476,9.966484978
49:57.1,1.42163E+12,-8.797505,6.2754,0.060773622,10.80649956
49:57.1,1.42163E+12,-6.9778895,3.3175511,-0.1088237,7.727155348
49:57.1,1.42163E+12,1.5943346,-4.3173223,-7.6356215,8.91537382
49:57.2,1.42163E+12,4.7388453,-14.037958,-17.425413,22.87282094
49:57.2,1.42163E+12,1.9637663,-12.686269,-4.332441,13.54872113
49:57.2,1.42163E+12,-0.542921,-0.005987549,13.07501,13.08627852
49:57.2,1.42163E+12,-2.9803023,-12.157119,9.298064,15.5926822
49:57.2,1.42163E+12,-7.2343063,-18.571281,6.9481015,21.10696047
49:57.3,1.42163E+12,-3.2525861,-7.5438623,3.663332,8.994952812
49:57.3,1.42163E+12,-6.446195,-5.795199,4.287983,9.670809668
49:57.3,1.42163E+12,-4.9575405,-10.584789,8.009095,14.16900027
49:57.3,1.42163E+12,-3.6356397,-17.97537,7.4110885,19.78019301
49:57.3,1.42163E+12,3.3991315,-19.317629,-4.552633,20.13582261
49:57.4,1.42163E+12,9.740844,-15.637531,0.3686833,18.42694617
49:57.4,1.42163E+12,8.82415,-16.86468,0.7110214,19.04701043
49:57.4,1.42163E+12,7.2518196,-19.194735,-4.582271,21.02436555
49:57.4,1.42163E+12,5.0436115,-16.490458,-6.815926,18.5426554
49:57.4,1.42163E+12,3.7908669,-10.99748,-11.989018,16.70484333
49:57.5,1.42163E+12,1.2199631,-9.8656845,-10.336156,14.34071691
49:57.5,1.42163E+12,-1.6687299,-5.364694,-6.090984,8.286415828
49:57.5,1.42163E+12,0.94812834,-2.836751,-5.6324873,6.377383223
49:57.6,1.42163E+12,5.330116,-0.9635463,-3.2350726,6.309061164
49:57.6,1.42163E+12,5.667215,-1.0859916,0.71536237,5.814503154
49:57.6,1.42163E+12,2.7181976,-2.063459,0.57675064,3.461084012
49:57.6,1.42163E+12,3.572022,-8.719069,-2.4234605,9.729062966
49:57.6,1.42163E+12,5.164261,-16.478033,-1.486858,17.33222173
49:57.6,1.42163E+12,-0.36748582,-19.15911,-3.5125954,19.48191131
49:57.6,1.42163E+12,-4.3776464,-19.52375,-3.6160305,20.33264072
49:57.7,1.42163E+12,-4.619244,-19.573298,-2.8005264,20.30503282
49:57.7,1.42163E+12,0.16316071,-19.580032,4.62613,20.11977518
49:57.7,1.42163E+12,2.0733385,-19.099533,3.8743932,19.59851566
49:57.7,1.42163E+12,4.6390033,-12.194541,3.2024405,13.43438897
49:57.7,1.42163E+12,3.4627492,-8.27105,3.5694773,9.651013849
49:57.8,1.42163E+12,1.2502002,-4.841831,4.854106,6.969122831
49:57.8,1.42163E+12,-2.802472,-1.3082794,4.8190784,5.726164591
49:57.8,1.42163E+12,-7.350465,2.5551865,-0.5682184,7.802639676
49:57.9,1.42163E+12,-10.5129385,5.7754397,-1.7060024,12.11561075
49:57.9,1.42163E+12,-9.06006,7.003037,0.8945398,11.48596604
49:57.9,1.42163E+12,-3.6938686,2.9817994,0.5572911,4.779787262
49:57.9,1.42163E+12,3.3376093,-6.6297135,-7.6658587,10.67043235
49:57.9,1.42163E+12,4.8059063,-16.32161,-16.688347,23.83259562
49:57.9,1.42163E+12,2.7065217,-11.859838,-6.0800567,13.59956273
49:57.9,1.42163E+12,-1.6717236,1.4820681,12.245436,12.44756556
49:58.0,1.42163E+12,-5.681136,-6.73719,8.914263,12.53511548
49:58.0,1.42163E+12,-11.543545,-17.793648,5.253475,21.85100318
49:58.0,1.42163E+12,-4.2122407,-10.51698,1.8640736,11.4814899
49:58.0,1.42163E+12,-3.97693,-8.592881,4.889133,10.65632195
49:58.0,1.42163E+12,-2.498604,-13.375136,10.825937,17.387875
49:58.1,1.42163E+12,1.1529025,-17.156124,9.1202345,19.46382419
49:58.1,1.42163E+12,5.3515215,-19.251316,-3.7236567,20.32529383
49:58.1,1.42163E+12,7.88635,-15.627053,-2.7349627,17.71663971
49:58.1,1.42163E+12,5.401667,-17.732574,0.30132338,18.53949791
49:58.1,1.42163E+12,3.5905833,-19.301462,-4.41447,20.12277986
49:58.2,1.42163E+12,2.1061203,-16.24452,-6.313571,17.55509475
49:58.2,1.42163E+12,0.25941056,-10.712025,-12.584929,16.52861795
49:58.2,1.42163E+12,1.0816507,-9.246871,-11.131452,14.5115063
49:58.2,1.42163E+12,-0.60713744,-5.06846,-4.659361,6.911407062
49:58.2,1.42163E+12,1.6443306,-2.8639944,-7.644453,8.327301406
49:58.3,1.42163E+12,5.7974443,-1.509461,-2.7378068,6.586684978
49:58.3,1.42163E+12,4.5554767,-1.2777429,1.0711725,4.851021069
49:58.3,1.42163E+12,1.1223661,-1.42339,-0.27542725,1.833468005
49:58.3,1.42163E+12,0.6592291,-3.9966888,-1.301244,4.254566995
49:58.3,1.42163E+12,3.8681061,-12.912149,-2.3447242,13.6815046
49:58.4,1.42163E+12,6.162834,-18.673967,0.61911255,19.67437081
49:58.4,1.42163E+12,-0.79394895,-19.388432,-1.1127859,19.43656201
49:58.4,1.42163E+12,-5.2370095,-19.554886,-3.6562967,20.57154201
49:58.4,1.42163E+12,-3.522924,-19.577639,-3.099754,20.13214885
49:58.4,1.42163E+12,-0.23126908,-19.580631,7.162306,20.85073675
49:58.5,1.42163E+12,2.6803262,-16.745527,4.7276187,17.60531742
49:58.5,1.42163E+12,4.264033,-10.596614,3.4148488,11.92188735
49:58.5,1.42163E+12,3.0460157,-7.633526,4.0781193,9.174965279
49:58.5,1.42163E+12,-1.1008109,-2.9904814,5.1386642,6.046538961
49:58.5,1.42163E+12,-5.7303834,1.2040961,2.0707939,6.210904017
49:58.6,1.42163E+12,-8.462053,4.143384,-1.7260606,9.57879205
49:58.6,1.42163E+12,-8.875343,5.884563,-0.93121356,10.6895722
49:58.6,1.42163E+12,-7.4015083,4.6306205,-0.63887143,8.754034957
49:58.6,1.42163E+12,-0.63078827,-2.7710376,-7.3851924,7.913128964
49:58.6,1.42163E+12,3.0626311,-13.8120775,-17.459843,22.47218974
49:58.7,1.42163E+12,1.6194823,-13.928386,-7.843539,16.06685294
49:58.7,1.42163E+12,-1.6337028,-1.7389339,12.49332,12.71911634
49:58.7,1.42163E+12,-4.6906457,-10.404414,8.518486,14.24143924
49:58.7,1.42163E+12,-7.4847355,-18.1773,7.0879107,20.89674565
49:58.7,1.42163E+12,-4.468807,-9.365873,7.096293,12.57168196
49:58.8,1.42163E+12,-5.731132,-8.32868,7.1301227,12.37139581
49:58.8,1.42163E+12,-2.8596532,-14.500795,11.284135,18.59522451
49:58.8,1.42163E+12,0.36449203,-18.457966,6.032156,19.42205626
49:58.8,1.42163E+12,4.964277,-18.473385,-5.807623,19.99096007
49:58.9,1.42163E+12,7.017557,-15.105687,1.0144404,16.68703015
49:58.9,1.42163E+12,5.960156,-16.76379,0.266895,17.79380082
49:58.9,1.42163E+12,3.9960902,-18.950293,-5.3405943,20.08990516
49:58.9,1.42163E+12,3.4688864,-15.679744,-7.1561685,17.58119144
49:58.9,1.42163E+12,3.509901,-12.437935,-10.962753,16.94708191
49:59.0,1.42163E+12,3.3415012,-10.320139,-9.560768,14.45957067
49:59.0,1.42163E+12,0.46014312,-4.99137,-7.300169,8.855392346
49:59.0,1.42163E+12,0.6291417,-2.9193792,-7.4336915,8.011139963
49:59.0,1.42163E+12,3.376828,-1.0350975,-1.2924124,3.760947219
49:59.0,1.42163E+12,3.9038818,-0.22258712,0.96399534,4.0272975
49:59.1,1.42163E+12,2.640958,-0.81191164,1.0509645,2.956076124
49:59.1,1.42163E+12,1.5977774,-3.931275,-0.291893,4.253588752
49:59.1,1.42163E+12,3.7368293,-13.522131,-1.3534855,14.09410668
49:59.1,1.42163E+12,2.9190798,-18.757044,-1.8673668,19.07445373
49:59.1,1.42163E+12,-3.4754727,-19.469114,-3.0975087,20.01798867
49:59.2,1.42163E+12,-6.1204724,-19.565962,-4.764891,21.04735702
49:59.2,1.42163E+12,-3.0335915,-19.579136,-2.2453308,19.93957759
49:59.2,1.42163E+12,1.8275496,-19.58093,8.57896,21.45579903
49:59.2,1.42163E+12,3.7519479,-17.57121,3.4365537,18.29301602
49:59.2,1.42163E+12,4.1641903,-9.7779665,3.1129267,11.07426848
49:59.2,1.42163E+12,2.417323,-6.5740294,3.9486387,8.040712694
49:59.3,1.42163E+12,-0.51717454,-3.013234,4.4830275,5.426286411
49:59.3,1.42163E+12,-5.0286427,0.9446855,1.834585,5.435566228
49:59.3,1.42163E+12,-8.621621,4.040548,-2.0609143,9.741957943
49:59.3,1.42163E+12,-9.15137,5.760022,-0.43484575,10.82194609
49:59.3,1.42163E+12,-7.4673715,4.691694,0.24339385,8.822293935
49:59.4,1.42163E+12,-0.84334624,-2.3882835,-4.6906457,5.330786812
49:59.4,1.42163E+12,4.267176,-14.25321,-17.135468,22.69332611
49:59.4,1.42163E+12,2.3694227,-13.4429455,-8.172106,15.90943947
49:59.4,1.42163E+12,-1.4500346,1.2226574,13.394446,13.5280699
49:59.5,1.42163E+12,-4.7397437,-3.9731877,10.27643,11.99401536
49:59.5,1.42163E+12,-12.714111,-16.745079,7.2685847,22.24586732
49:59.5,1.42163E+12,-6.6162415,-13.408966,4.744234,15.68702575
49:59.5,1.42163E+12,-5.0783396,-8.275841,5.3778667,11.09957331
49:59.5,1.42163E+12,-1.8848804,-14.92651,10.825937,18.53522017
49:59.5,1.42163E+12,3.3359628,-18.652262,5.959557,19.86332916
49:59.6,1.42163E+12,8.309521,-19.349512,-4.864584,21.61286495
49:59.6,1.42163E+12,8.820707,-14.942976,0.32467484,17.35519569
49:59.6,1.42163E+12,5.253475,-18.410366,-2.0921993,19.25922827
49:59.6,1.42163E+12,3.2184572,-18.95703,-5.9062676,20.11495588
49:59.6,1.42163E+12,2.3998096,-15.363602,-9.80551,18.38334515
49:59.7,1.42163E+12,1.4489868,-11.796819,-12.257411,17.07362368
49:59.7,1.42163E+12,0.84110093,-7.826325,-7.9830494,11.21106112
49:59.7,1.42163E+12,-1.3395643,-3.0391302,-4.914281,5.931349141
49:59.7,1.42163E+12,2.2752686,-1.5536193,-4.407734,5.197951437
49:59.7,1.42163E+12,5.0951047,-0.13337265,-0.6851253,5.142691595
49:59.8,1.42163E+12,4.008664,-1.1847862,-0.9909393,4.295935998
49:59.8,1.42163E+12,1.199306,-2.3790028,-0.8966354,2.811039709
49:59.8,1.42163E+12,0.5303471,-5.0286427,1.4522799,5.26095356
49:59.8,1.42163E+12,3.3013847,-13.260475,1.524879,13.75007615
49:59.8,1.42163E+12,3.0967603,-18.717976,-0.572709,18.98105754
49:59.9,1.42163E+12,-1.9743942,-19.463724,-3.447032,19.86496449
49:59.9,1.42163E+12,-4.608317,-19.565214,-4.4972477,20.59755863
49:59.9,1.42163E+12,-3.3953893,-19.578985,-1.6600479,19.94043834
49:59.9,1.42163E+12,1.3262421,-19.58093,7.053632,20.85486663
49:59.9,1.42163E+12,1.9085312,-18.174906,2.0570223,18.39024307
50:00.0,1.42163E+12,4.0143523,-12.730726,2.6143136,13.6022441
50:00.0,1.42163E+12,3.025209,-7.6724453,3.5045123,8.961021863
50:00.0,1.42163E+12,0.16795075,-3.7516484,3.7055442,5.275806193
50:00.0,1.42163E+12,-3.8634658,-0.38290375,1.8200651,4.287845641
50:00.0,1.42163E+12,-7.2413416,2.4523504,-1.84177,7.864042687
50:00.1,1.42163E+12,-8.906179,4.48647,-1.5506254,10.09221861
50:00.1,1.42163E+12,-7.5528436,3.70764,-0.14879058,8.415116128
50:00.2,1.42163E+12,-2.769391,-1.4030324,-3.6821928,4.816281786
50:00.2,1.42163E+12,2.031276,-9.419163,-15.077846,17.89380211
50:00.2,1.42163E+12,2.1628523,-15.426171,-11.64713,19.44994393
50:00.2,1.42163E+12,1.809587,-5.6714063,2.8518696,6.600955593
50:00.2,1.42163E+12,-1.5184424,-5.179679,11.312575,12.53431669
50:00.2,1.42163E+12,-7.553143,-16.910934,7.4666233,19.96947975
50:00.2,1.42163E+12,-4.765939,-11.980487,6.591393,14.48077018
50:00.2,1.42163E+12,-6.2051964,-6.213878,5.7755895,10.51066964
50:00.3,1.42163E+12,-4.365522,-13.413756,9.153316,16.81576124
50:00.3,1.42163E+12,1.011297,-18.738932,8.38182,20.5529852
50:00.3,1.42163E+12,6.5675926,-19.46657,-5.0666637,21.16014417
50:00.3,1.42163E+12,8.041577,-14.619798,0.32272887,16.68860714
50:00.3,1.42163E+12,5.908513,-14.677728,2.0444486,15.95387085
50:00.4,1.42163E+12,3.8544846,-18.846708,-4.656068,19.79228191
50:00.4,1.42163E+12,3.1181657,-18.225649,-6.624325,19.64125557
50:00.4,1.42163E+12,2.1427941,-11.961327,-11.176807,16.5101764
50:00.4,1.42163E+12,1.4042299,-10.385703,-10.755584,15.01723262
50:00.4,1.42163E+12,-1.1472144,-5.0952544,-6.8600845,8.621976434
50:00.5,1.42163E+12,-0.5641768,-3.1792388,-8.172854,8.787570615
50:00.5,1.42163E+12,3.2871642,-1.06758,-2.108216,4.048425649
50:00.5,1.42163E+12,4.709806,-0.46523255,0.72613996,4.788109556
50:00.5,1.42163E+12,3.0195208,-0.9349558,1.1313473,3.357319604
50:00.5,1.42163E+12,1.7723144,-4.0616536,-0.18501526,4.435353306
50:00.6,1.42163E+12,4.124523,-13.516592,-1.5382013,14.21534426
50:00.6,1.42163E+12,1.7308507,-18.705702,-2.4420218,18.94366918
50:00.6,1.42163E+12,-4.0122566,-19.462078,-4.5566745,20.38710292
50:00.6,1.42163E+12,-5.419181,-19.564915,-4.1517663,20.72174184
50:00.6,1.42163E+12,-1.6055613,-19.578985,0.96130097,19.66821243
50:00.7,1.42163E+12,0.459245,-19.580782,5.80418,20.42807958
50:00.7,1.42163E+12,2.936743,-15.937508,3.2760873,16.53364354
50:00.7,1.42163E+12,3.6539016,-10.037377,2.310595,10.9288052
50:00.7,1.42163E+12,2.1728814,-6.581514,4.1864944,8.097189356
50:00.7,1.42163E+12,-0.4593947,-2.864593,3.985612,4.929709886
50:00.8,1.42163E+12,-4.4209065,0.8728349,1.4343174,4.729008506
50:00.8,1.42163E+12,-7.846533,3.9445972,-1.9502944,8.996197832
50:00.8,1.42163E+12,-8.368797,5.432802,-1.3009447,10.06203548
50:00.8,1.42163E+12,-5.1889596,4.1251216,-0.24968079,6.63357147
50:00.8,1.42163E+12,0.23141876,-2.8077114,-5.577851,6.248937488
50:00.9,1.42163E+12,2.9990134,-12.258907,-15.921491,20.3167113
50:00.9,1.42163E+12,2.305805,-13.601615,-8.751401,16.33730966
50:00.9,1.42163E+12,0.12798385,-4.9159274,6.354436,8.035022025
50:00.9,1.42163E+12,-4.1082067,-7.8640466,9.120983,12.72450086
50:00.9,1.42163E+12,-8.688981,-17.426012,5.859266,20.33458343
50:01.0,1.42163E+12,-4.766538,-9.730965,5.4356465,12.12261594
50:01.0,1.42163E+12,-5.632188,-5.340744,4.82327,9.13832707
50:01.0,1.42163E+12,-5.447472,-12.019256,8.902437,15.91825526
50:01.0,1.42163E+12,-1.1581416,-18.04243,9.3381815,20.34876424
