time,time_milisec,ax,ay,az,resultant,MA_x,Ma_y,Ma_z,Ma_R,,,
55:27.0,1.42E+12,-5.29943,-7.2726264,-1.9411633,9.205605251,0,0,0,0,,,
55:27.0,1.42E+12,-6.5138545,-6.248905,-1.5085629,9.151769019,0,0,0,0,,,
55:27.0,1.42E+12,-7.133566,-9.30974,-3.2528856,12.17128947,0,0,0,0,,,
55:27.0,1.42E+12,-6.3271923,-13.904435,2.4945626,15.47867945,0,0,0,0,,,
55:27.0,1.42E+12,-6.0576034,-12.739708,0.83571213,14.13128209,0,0,0,0,,,
55:27.1,1.42E+12,-5.206024,-6.0058107,2.0508852,8.208445538,0,0,0,0,,,
55:27.1,1.42E+12,-4.8084507,-3.4655933,4.2556505,7.296718182,0,0,0,0,,,
55:27.1,1.42E+12,-4.7969246,-3.8880148,5.392686,8.198061173,0,0,0,0,,,
55:27.1,1.42E+12,-4.355193,-7.572902,5.430108,10.28604023,0,0,0,0,,,
55:27.1,1.42E+12,-2.1859045,-12.797038,2.9183314,13.30635255,0,0,0,0,,,
55:27.2,1.42E+12,-0.22094055,-13.490846,-0.30880782,13.49618845,0,0,0,0,,,
55:27.2,1.42E+12,-1.4386582,-11.097921,0.11136841,11.19133553,0,0,0,0,,,
55:27.2,1.42E+12,-2.7632537,-8.770861,1.0499167,9.255587435,0,0,0,0,,,
55:27.3,1.42E+12,-3.630251,-7.940837,1.2723541,8.82351968,0,0,0,0,,,
55:27.3,1.42E+12,-3.9484892,-8.243657,0.49472123,9.153862397,0,0,0,0,,,
55:27.3,1.42E+12,-3.4121544,-8.353828,0.56058425,9.041210904,0,0,0,0,,,
55:27.3,1.42E+12,-3.044519,-8.825797,0.040415954,9.336242396,0,0,0,0,,,
55:27.3,1.42E+12,-2.4968078,-8.863369,0.41658372,9.217749249,0,0,0,0,,,
55:27.3,1.42E+12,-2.149081,-8.514594,1.0071057,8.839181072,0,0,0,0,,,
55:27.3,1.42E+12,-2.2670357,-8.844508,1.1117381,9.197865743,0,0,0,0,,,
55:27.4,1.42E+12,-3.046465,-8.8951025,0.6727011,9.426363257,0,0,0,0,,,
55:27.4,1.42E+12,-3.4621503,-9.751322,0.305365,10.35219847,0,0,0,0,,,
55:27.4,1.42E+12,-3.1813345,-9.682915,-0.2945874,10.1963971,0,0,0,0,,,
55:27.4,1.42E+12,-2.0275338,-10.46429,-1.2865746,10.73627183,0,0,0,0,,,
55:27.4,1.42E+12,-0.29264146,-11.437566,-1.5100598,11.54053013,0,0,0,0,,,
55:27.5,1.42E+12,-0.9500743,-11.878998,-0.8705896,11.94868867,0,0,0,0,,,
55:27.5,1.42E+12,-3.4100587,-11.391911,-0.8339159,11.92055168,0,0,0,0,,,
55:27.5,1.42E+12,-3.960614,-11.6369505,-2.0965402,12.46998641,0,0,0,0,,,
55:27.5,1.42E+12,-2.8960276,-12.358899,-2.6997857,12.97760391,0,0,0,0,,,
55:27.6,1.42E+12,-2.8357031,-13.255086,-3.206931,13.92921115,0,0,0,0,,,
55:27.6,1.42E+12,-2.7870543,-13.493091,-4.6545706,14.54290906,0,0,0,0,,,
55:27.6,1.42E+12,-1.502276,-14.03676,-2.828069,14.39741083,0,0,0,0,,,
55:27.6,1.42E+12,-1.9597248,-14.477294,3.7752993,15.08924941,0,0,0,0,,,
55:27.6,1.42E+12,-4.151467,-12.376713,5.8026834,14.28596646,0,0,0,0,,,
55:27.6,1.42E+12,-5.86196,-11.713891,3.6278558,13.59187828,0,0,0,0,,,
55:27.7,1.42E+12,-9.0374565,-12.076736,0.9193881,15.11186444,0,0,0,0,,,
55:27.7,1.42E+12,-9.850865,-11.711495,-2.8674371,15.56987,0,0,0,0,,,
55:27.7,1.42E+12,-7.0898566,-11.145523,-0.43319917,13.21652038,0,0,0,0,,,
55:27.7,1.42E+12,-3.5793567,-9.515712,1.5447876,10.28333302,0,0,0,0,,,
55:27.7,1.42E+12,-3.138673,-8.336763,0.77419007,8.941602529,0,0,0,0,,,
55:27.8,1.42E+12,-3.1292427,-7.499405,0.89139634,8.174828602,0,0,0,0,,,
55:27.8,1.42E+12,-2.9747639,-6.7162337,2.05822,7.628452329,0,0,0,0,,,
55:27.8,1.42E+12,-3.1037955,-5.461992,2.6382637,6.813760963,0,0,0,0,,,
55:27.8,1.42E+12,-3.410508,-4.218378,2.298171,5.891338364,0,0,0,0,,,
55:27.9,1.42E+12,-3.8106258,-3.3232393,1.6510665,5.318910511,0,0,0,0,,,
55:27.9,1.42E+12,-3.7943096,-2.2719755,1.4739848,4.661683087,0,0,0,0,,,
55:27.9,1.42E+12,-3.1018496,-1.8182689,1.4437478,3.874529706,0,0,0,0,,,
55:27.9,1.42E+12,-2.6057813,-1.7197738,0.9565109,3.265368464,0,0,0,0,,,
55:27.9,1.42E+12,-2.3815475,-2.9994626,-0.2906955,3.840969703,-3.701817349,-9.016668122,0.599836331,10.30582111,,-3.701817349,-9.142026571
55:27.9,1.42E+12,-3.2352223,-5.174589,-2.1891975,6.483488285,-3.659690661,-8.973851033,0.594774408,10.25026771,,,
55:28.0,1.42E+12,-4.998705,-10.29559,-8.174352,14.06436119,-3.628769243,-9.056436441,0.458737896,10.35052469,,,
55:28.0,1.42E+12,-5.96779,-18.213675,-17.229471,25.77221654,-3.604977896,-9.2381494,0.173501459,10.62809463,,,
55:28.0,1.42E+12,-3.1263986,-16.061451,-12.172088,20.39373195,-3.539655576,-9.282170135,-0.125817941,10.72840182,,,
55:28.0,1.42E+12,-3.8511915,-9.818532,-6.818321,12.55885138,-3.494626761,-9.222554298,-0.282022698,10.6963114,,,
55:28.0,1.42E+12,-6.1728635,-8.20414,-3.1278956,10.73293473,-3.51435818,-9.267418161,-0.387712102,10.74783159,,,
55:28.1,1.42E+12,-8.127499,-7.536827,-1.9875668,11.26101341,-3.582093859,-9.350504563,-0.5151247,10.82873557,,,
55:28.1,1.42E+12,-8.523575,-9.862391,-2.290836,13.23502991,-3.658147949,-9.472430608,-0.671931272,10.93153085,,,
55:28.1,1.42E+12,-7.9933777,-10.919642,4.1426353,14.15252966,-3.732396617,-9.540731424,-0.698206225,11.0104388,,,
55:28.1,1.42E+12,-6.718928,-7.8294687,3.1130762,10.77663292,-3.8249073,-9.439352459,-0.694231841,10.95881187,,,
55:28.1,1.42E+12,-3.6290534,-5.5812936,3.5119967,7.526950754,-3.894460624,-9.277933022,-0.616256239,10.83699069,,,
55:28.2,1.42E+12,-2.5891657,-6.4464946,4.9552956,8.533230697,-3.917940369,-9.183005953,-0.517400582,10.78274365,,,
55:28.2,1.42E+12,-2.2926323,-8.188422,6.1593914,10.49973905,-3.90833585,-9.171119443,-0.413125588,10.8081345,,,
55:28.2,1.42E+12,-1.9907103,-10.519075,4.1641903,11.48713834,-3.874875836,-9.223736545,-0.354108523,10.86249407,,,
55:28.2,1.42E+12,-1.409469,-11.91657,-0.36449203,12.00516963,-3.823059097,-9.298693953,-0.371643487,10.92068401,,,
55:28.2,1.42E+12,-1.8739531,-11.077115,0.35087037,11.23998607,-3.791667234,-9.354271239,-0.375923362,10.96555697,,,
55:28.3,1.42E+12,-2.9255164,-9.3453665,0.8725355,9.83137017,-3.789238609,-9.364874698,-0.358941331,10.97566162,,,
55:28.3,1.42E+12,-3.5125954,-8.169561,0.7586224,8.924996433,-3.809968969,-9.350715351,-0.351960949,10.96968708,,,
55:28.3,1.42E+12,-3.585494,-8.080946,0.23575974,8.843813552,-3.83928352,-9.341865392,-0.367702704,10.96978162,,,
55:28.3,1.42E+12,-3.6260595,-8.469089,-0.13501923,9.213685809,-3.867018699,-9.33420378,-0.393146731,10.97010447,,,
55:28.3,1.42E+12,-3.1572344,-8.720416,0.17318985,9.2759786,-3.869279299,-9.330638749,-0.403340838,10.9670354,,,
55:28.4,1.42E+12,-2.6951454,-8.766071,0.042212218,9.171128141,-3.853626138,-9.310531586,-0.408711303,10.94293192,,,
55:28.4,1.42E+12,-2.3080504,-8.848549,0.104782104,9.145211607,-3.835804013,-9.293503708,-0.400560905,10.92147916,,,
55:28.4,1.42E+12,-2.0483406,-8.741222,0.7997868,9.013563124,-3.836228642,-9.258339055,-0.357982101,10.88632184,,,
55:28.4,1.42E+12,-2.1570144,-8.883277,0.9316626,9.18876034,-3.874277069,-9.206210708,-0.308151031,10.83832654,,,
55:28.4,1.42E+12,-2.444866,-9.128168,0.51013917,9.463670681,-3.904783022,-9.15007132,-0.279972893,10.78761188,,,
55:28.5,1.42E+12,-3.016677,-9.912836,0.013022918,10.36170002,-3.896754824,-9.119886116,-0.262688428,10.75579858,,,
55:28.5,1.42E+12,-3.1925611,-9.425599,-1.1573932,10.01867865,-3.881080276,-9.074756494,-0.243522162,10.70577189,,,
55:28.5,1.42E+12,-2.5777895,-9.980346,-2.1299207,10.52562906,-3.87458562,-9.026214596,-0.231892264,10.65573159,,,
55:28.6,1.42E+12,-1.598975,-11.066338,-0.47047165,11.19115282,-3.849346271,-8.981546269,-0.176046155,10.59985285,,,
55:28.6,1.42E+12,-1.2765454,-11.451487,0.20701951,11.52427784,-3.818519559,-8.939880882,-0.07683003,10.53824813,,,
55:28.6,1.42E+12,-2.743495,-11.540252,-0.13591737,11.86265799,-3.843850559,-8.888931739,-0.02188816,10.48651848,,,
55:28.6,1.42E+12,-3.1855257,-12.255015,-1.3015435,12.72898197,-3.868866904,-8.843579106,-0.125497197,10.43834976,,,
55:28.6,1.42E+12,-2.2674847,-13.759537,-1.1054512,13.98886585,-3.830418286,-8.871800004,-0.266479536,10.43228648,,,
55:28.6,1.42E+12,-2.738106,-14.798527,-3.0011091,15.34601843,-3.766666163,-8.934751759,-0.401764534,10.46808526,,,
55:28.6,1.42E+12,-2.5692573,-14.838044,-3.7507503,15.51891622,-3.634662098,-8.991104984,-0.497073481,10.47639244,,,
55:28.7,1.42E+12,-2.564018,-14.286441,-0.9942325,14.54871414,-3.485950935,-9.043654902,-0.458844816,10.45555252,,,
55:28.7,1.42E+12,-4.3575883,-11.700269,1.0978171,12.53355787,-3.430190357,-9.054976249,-0.427599586,10.44161451,,,
55:28.7,1.42E+12,-5.6794896,-9.979747,3.2894096,11.94454553,-3.473050212,-9.064446351,-0.391995055,10.47551681,,,
55:28.7,1.42E+12,-6.4532304,-10.138567,3.2828233,12.45839686,-3.540694241,-9.101217861,-0.340798458,10.54728812,,,
55:28.7,1.42E+12,-9.055569,-11.012898,1.1985576,14.30817223,-3.661639676,-9.1729218,-0.334529861,10.6724584,,,
55:28.8,1.42E+12,-9.298364,-11.51705,-2.417323,14.99818203,-3.790692739,-9.270897643,-0.425867473,10.82286105,,,
55:28.8,1.42E+12,-6.800359,-10.554552,-0.09834549,12.55599945,-3.86613281,-9.374827439,-0.481716641,10.94004959,,,
55:28.8,1.42E+12,-3.0894256,-10.359058,2.3625371,11.06508991,-3.859580108,-9.500147439,-0.480403047,11.04563635,,,
55:28.8,1.42E+12,-2.9967682,-9.717193,0.12933105,10.16962074,-3.842970769,-9.63063629,-0.511458872,11.14463044,,,
55:28.9,1.42E+12,-3.2241454,-7.43459,1.2099339,8.193423098,-3.831334765,-9.735995769,-0.516847666,11.21670677,,,
55:28.9,1.42E+12,-3.275339,-5.3808603,2.012565,6.613011493,-3.834875365,-9.808701716,-0.505239152,11.27259415,,,
55:28.9,1.42E+12,-3.5875895,-3.9939945,2.7942393,6.052318874,-3.854912267,-9.855114384,-0.467734491,11.32947069,,,
55:29.1,1.42E+12,-3.7323387,-3.2507899,2.5087829,5.549052062,-3.882479435,-9.860243512,-0.410602278,11.36432951,,,
55:29.1,1.42E+12,-3.6579432,-3.0808933,1.8401234,5.124305427,-3.891106392,-9.817515029,-0.32837124,11.33659109,,,
55:29.1,1.42E+12,-3.8112245,-2.5071363,0.9565109,4.661124083,-3.866872096,-9.658566994,-0.142027099,11.14468829,,,
55:29.1,1.42E+12,-3.3673975,-1.3820759,0.8981323,3.749152083,-3.813802861,-9.315064971,0.227923989,10.69523799,,,
55:29.1,1.42E+12,-3.309468,-1.355581,0.06256989,3.57688318,-3.817538971,-9.014945176,0.477610885,10.352037,,,
55:29.1,1.42E+12,-3.0894256,-3.1343322,-0.47825545,4.426885717,-3.801992729,-8.878532935,0.606999978,10.18607852,,,
55:29.1,1.42E+12,-3.794609,-7.148684,-4.1426353,9.091983701,-3.753456922,-8.856993016,0.586291004,10.15258972,,,
55:29.1,1.42E+12,-5.533094,-16.510666,-14.36832,22.57577996,-3.700509882,-9.040132588,0.333622571,10.38350332,,,
55:29.1,1.42E+12,-4.534371,-19.103275,-17.226328,26.11976287,-3.619097555,-9.228722057,0.028816612,10.64645706,,,
55:29.1,1.42E+12,-3.6992574,-9.847572,-10.029444,14.53440493,-3.531462447,-9.206843078,-0.260409496,10.65425043,,,
55:29.1,1.42E+12,-6.18424,-7.242539,-4.509822,10.53744229,-3.520550447,-9.19486492,-0.415978847,10.64936899,,,
55:29.1,1.42E+12,-7.9338017,-5.1105227,-0.16795075,9.438795428,-3.608402453,-9.185257351,-0.491079815,10.68838623,,,
55:29.1,1.42E+12,-7.36214,-6.484665,-0.9568103,9.857356212,-3.705810092,-9.186036339,-0.611735038,10.7154092,,,
55:29.2,1.42E+12,-7.417226,-10.56488,2.920876,13.23493285,-3.810393637,-9.234535482,-0.677827189,10.77122948,,,
55:29.2,1.42E+12,-9.756711,-13.507462,1.7089962,16.75009275,-3.968883447,-9.295522971,-0.727933191,10.87863671,,,
55:29.2,1.42E+12,-3.1870224,-10.654694,1.4691948,11.21776044,-4.005160047,-9.2697704,-0.690511011,10.86256713,,,
55:29.2,1.42E+12,-1.8291962,-6.4795756,4.6759763,8.197293032,-4.004246641,-9.175943065,-0.602243543,10.80047136,,,
55:29.2,1.42E+12,-2.1963825,-4.9943643,6.652616,8.603782336,-3.989366357,-9.087147102,-0.484282716,10.77541855,,,
55:29.3,1.42E+12,-2.8849506,-7.147936,6.3824277,10.00756276,-3.97655728,-9.066297612,-0.369511179,10.79751174,,,
55:29.3,1.42E+12,-2.6908045,-10.927426,2.9476702,11.63347873,-3.95829831,-9.124389041,-0.314166068,10.85444368,,,
55:29.3,1.42E+12,-0.8975336,-13.289215,-1.6043637,13.41576628,-3.902614108,-9.222758959,-0.34415269,10.94020042,,,
55:29.3,1.42E+12,-1.3181589,-11.375444,-0.34278718,11.45669115,-3.865081955,-9.276943204,-0.354682833,10.98470476,,,
55:29.3,1.42E+12,-2.7204428,-8.871451,0.9488768,9.327583774,-3.865598229,-9.279093816,-0.336179474,10.98789773,,,
55:29.4,1.42E+12,-3.9083724,-7.6712475,0.46807662,8.622210201,-3.898257861,-9.255067255,-0.328765301,10.97722423,,,
55:29.4,1.42E+12,-4.656367,-7.5519457,-0.18621276,8.874024605,-3.95148289,-9.23079631,-0.348887741,10.97437651,,,
55:29.4,1.42E+12,-3.8823266,-8.004904,0.17528549,8.898408447,-3.986693343,-9.212870331,-0.364324008,10.96845096,,,
55:29.4,1.42E+12,-3.0193713,-8.68,0.19010468,9.192123957,-3.998417941,-9.203724045,-0.370855324,10.96290919,,,
55:29.4,1.42E+12,-2.4557931,-9.027128,0.17139359,9.356780186,-3.986971331,-9.185648371,-0.36762327,10.94240062,,,
55:29.5,1.42E+12,-1.9585272,-8.663085,0.54875886,8.898651965,-3.961786965,-9.170086861,-0.33280384,10.91954293,,,
55:29.5,1.42E+12,-1.9929557,-8.556357,0.95890594,8.837568565,-3.949851582,-9.141025861,-0.269766562,10.88509272,,,
55:29.5,1.42E+12,-2.407294,-8.788075,0.7316785,9.141153102,-3.966347888,-9.094530698,-0.245232885,10.84325599,,,
55:29.6,1.42E+12,-2.567461,-9.390722,0.3543132,9.741819825,-3.992693104,-9.052474269,-0.242226891,10.8068793,,,
55:29.6,1.42E+12,-2.506388,-9.937534,0.043559417,10.24882726,-3.987854186,-9.019765739,-0.2385641,10.77394398,,,
55:29.6,1.42E+12,-2.1013303,-9.980196,-0.32422578,10.20416697,-3.965727749,-8.973340861,-0.21861884,10.72241714,,,
55:29.6,1.42E+12,-1.5600559,-10.763517,-1.2865746,10.95181934,-3.951290427,-8.912197596,-0.222315236,10.6604366,,,
55:29.6,1.42E+12,-2.2285657,-11.537707,-1.4751823,11.8431985,-3.940891645,-8.845650249,-0.191173873,10.58895048,,,
55:29.6,1.42E+12,-3.1958542,-11.318413,-0.69470537,11.78145035,-3.953679337,-8.773821045,-0.128805609,10.51267566,,,
55:29.6,1.42E+12,-3.6476147,-11.648327,-0.7674541,12.23019218,-3.975793555,-8.719981984,-0.124177478,10.46535889,,,
55:29.7,1.42E+12,-3.0285022,-12.131073,-0.8969348,12.53551952,-3.948669349,-8.728773902,-0.164886701,10.46539892,,,
55:29.7,1.42E+12,-2.6716442,-13.284425,-1.5980768,13.64432042,-3.887284749,-8.79621631,-0.264631321,10.50008821,,,
55:29.7,1.42E+12,-2.749183,-14.350059,-3.6552489,15.06130954,-3.811691945,-8.882165127,-0.406224631,10.55320887,,,
55:29.7,1.42E+12,-1.8010547,-14.220878,-3.686534,14.80093585,-3.663640633,-8.947634106,-0.505920378,10.56326527,,,
55:29.7,1.42E+12,-1.4432987,-14.193185,0.81924635,14.2898837,-3.503333178,-9.002249106,-0.439867943,10.54881021,,,
55:29.8,1.42E+12,-3.6682718,-11.6435375,3.8981936,12.814995,-3.439413031,-9.0244733,-0.35830592,10.55409583,,,
55:29.8,1.42E+12,-5.2471886,-10.125244,3.3197966,11.87748306,-3.48344901,-9.019701586,-0.338770012,10.57067528,,,
55:29.8,1.42E+12,-6.704558,-10.870544,2.2369483,12.96625476,-3.55911819,-9.043239361,-0.295757415,10.62774945,,,
55:29.9,1.42E+12,-9.478739,-11.537108,-0.6343808,14.9450257,-3.686762957,-9.126964218,-0.333396491,10.76553725,,,
55:29.9,1.42E+12,-8.619526,-11.788286,-2.595303,14.83224571,-3.795827998,-9.257728008,-0.427434613,10.93327673,,,
55:29.9,1.42E+12,-6.186186,-9.977352,2.7768755,12.06347743,-3.84886058,-9.379837345,-0.427788977,11.05595343,,,
55:29.9,1.42E+12,-3.5078056,-9.772578,1.4052777,10.47772811,-3.844278271,-9.512935061,-0.450309491,11.15653866,,,
55:29.9,1.42E+12,-3.7001555,-8.447534,0.34413436,9.228781602,-3.845139747,-9.622458341,-0.480839879,11.24030348,,,
55:29.9,1.42E+12,-3.2802787,-7.2082605,1.3906082,8.040711346,-3.834304118,-9.718399651,-0.471980751,11.30927465,,,
55:29.9,1.42E+12,-3.345992,-5.360952,2.1932392,6.689227683,-3.833867271,-9.799601204,-0.445549998,11.36927619,,,
55:30.0,1.42E+12,-3.4067657,-4.4671607,2.8782148,6.312344865,-3.835852939,-9.863102831,-0.388087857,11.42510194,,,
55:30.0,1.42E+12,-3.6380346,-3.645519,2.4295976,5.694563111,-3.847049041,-9.873535214,-0.328743917,11.45097291,,,
55:30.0,1.42E+12,-3.8960981,-3.4064662,1.6390915,5.428647467,-3.849120247,-9.797163422,-0.210749493,11.37621094,,,
55:30.0,1.42E+12,-3.9327717,-2.6113198,1.3443544,4.90845934,-3.816460608,-9.513503296,0.109917332,11.01565338,,,
55:30.0,1.42E+12,-3.62576,-1.2277468,1.1085947,3.985282925,-3.797917527,-9.148696598,0.484099428,10.5639293,,,
55:30.1,1.42E+12,-3.2775843,-2.0359163,0.04445755,3.858690257,-3.789311953,-8.989275053,0.689689255,10.34605757,,,
55:30.1,1.42E+12,-2.7187963,-4.0079155,-1.2178674,4.993840304,-3.718588612,-8.923262329,0.756872002,10.23292283,,,
55:30.1,1.42E+12,-4.011508,-8.945398,-6.9687586,12.02813112,-3.638541802,-9.00152509,0.618080005,10.28576642,,,
55:30.1,1.42E+12,-5.6785913,-17.655785,-17.267641,25.3405716,-3.604183665,-9.229507131,0.28520591,10.60175041,,,
55:30.2,1.42E+12,-4.251609,-15.887063,-14.216986,21.73931095,-3.539579237,-9.33812311,-0.064546376,10.77530914,,,
55:30.2,1.42E+12,-4.3860292,-7.379654,-7.698641,11.53107187,-3.429973486,-9.213065804,-0.256538972,10.66879851,,,
55:30.2,1.42E+12,-7.0012407,-5.7296352,-1.4763799,9.166558159,-3.507814676,-9.1125544,-0.316652741,10.62693724,,,
55:30.2,1.42E+12,-6.5825615,-3.9806721,-0.34548157,7.700339199,-3.604822131,-9.061556369,-0.419131474,10.61679533,,,
55:30.2,1.42E+12,-6.015241,-6.0025177,2.5339308,8.86758977,-3.682758018,-9.082130929,-0.503186274,10.62217915,,,
55:30.2,1.42E+12,-8.967552,-10.427466,4.4339294,14.45021681,-3.806892741,-9.149060112,-0.542951545,10.71284556,,,
55:30.3,1.42E+12,-8.4978285,-15.6992035,-0.29428804,17.85398233,-3.925403435,-9.246443327,-0.609113958,10.83979462,,,
55:30.3,1.42E+12,-1.5305672,-11.0387945,1.8268012,11.29313166,-3.938322488,-9.200516378,-0.539090185,10.79647554,,,
55:30.3,1.42E+12,-0.90816146,-6.3665605,4.651128,7.936676982,-3.929955193,-9.098294265,-0.437173548,10.72463852,,,
55:30.3,1.42E+12,-1.9896625,-5.6467075,6.964118,9.183844618,-3.915041309,-9.032483173,-0.314413524,10.72170507,,,
55:30.3,1.42E+12,-2.8003767,-9.594298,6.481971,11.91254011,-3.892429152,-9.071729102,-0.191680985,10.78885466,,,
55:30.4,1.42E+12,-2.3504124,-11.948603,1.7510587,12.30283539,-3.845368854,-9.161456802,-0.152144833,10.85883039,,,
55:30.4,1.42E+12,-0.9048683,-11.940819,-1.6833993,12.09279861,-3.784604399,-9.241781598,-0.190077176,10.92402202,,,
55:30.4,1.42E+12,-2.1188438,-10.042616,-0.32826737,10.26895295,-3.766226287,-9.269590088,-0.200656197,10.94599812,,,
55:30.4,1.42E+12,-4.2525067,-8.147557,-0.33500335,9.196669264,-3.802893911,-9.251639659,-0.210990829,10.94273055,,,
55:30.4,1.42E+12,-5.2394047,-6.687793,0.26794282,8.499984128,-3.869850595,-9.211327578,-0.216721768,10.93459448,,,
55:30.5,1.42E+12,-4.7586045,-6.962621,0.7643106,8.467973705,-3.926292407,-9.178802353,-0.220693102,10.92705172,,,
55:30.5,1.42E+12,-3.2192056,-7.597451,0.8789722,8.298020157,-3.942862032,-9.154503904,-0.217687108,10.90984493,,,
55:30.5,1.42E+12,-1.9700532,-8.202642,0.44801834,8.447790588,-3.930670036,-9.130257373,-0.215774758,10.88343617,,,
55:30.5,1.42E+12,-1.7428257,-9.2311535,-0.21989273,9.396807393,-3.915087132,-9.115841445,-0.221151332,10.86604801,,,
55:30.5,1.42E+12,-2.0622616,-9.575138,-0.5653743,9.811006,-3.914289811,-9.107574955,-0.226072731,10.85802431,,,
55:30.6,1.42E+12,-2.7854078,-9.533226,-0.30776,9.936579431,-3.939296993,-9.082466976,-0.206096923,10.83730513,,,
55:30.6,1.42E+12,-3.1998959,-9.4049425,0.2402504,9.937303329,-3.959120058,-9.038941169,-0.171088092,10.79840931,,,
55:30.6,1.42E+12,-2.997816,-9.439221,0.36179763,9.910433461,-3.955078462,-9.000590312,-0.149526806,10.7602253,,,
55:30.6,1.42E+12,-2.10148,-10.394085,-1.8074913,10.75733452,-3.923524693,-8.974993537,-0.170752055,10.73016698,,,
55:30.6,1.42E+12,-2.484234,-11.244467,-2.9548554,11.88867642,-3.912417179,-8.956899537,-0.212750435,10.7169661,,,
55:30.7,1.42E+12,-2.739603,-11.361673,-0.38574782,11.69366663,-3.913804093,-8.9176597,-0.188009027,10.67715683,,,
55:30.7,1.42E+12,-2.2664368,-11.447295,0.99049026,11.71146317,-3.90395213,-8.858419618,-0.093198024,10.60879262,,,
55:30.7,1.42E+12,-1.5353572,-12.46413,-0.81954575,12.5850512,-3.898529732,-8.822567618,-0.03468806,10.56357049,,,
55:30.7,1.42E+12,-1.4157559,-13.346097,-2.5346792,13.6582308,-3.897967634,-8.805280108,-0.10313552,10.55067961,,,
55:30.7,1.42E+12,-1.8652711,-14.181509,-2.7900481,14.57322209,-3.861171701,-8.857075445,-0.239630248,10.5865618,,,
55:30.8,1.42E+12,-1.8944604,-14.590459,-3.7012033,15.17133415,-3.792748677,-8.948202282,-0.382915961,10.65378325,,,
55:30.8,1.42E+12,-1.7702188,-15.038926,-1.3079801,15.19913753,-3.692047877,-9.033271302,-0.455261438,10.69935228,,,
55:30.8,1.42E+12,-3.7616775,-12.823683,1.739832,13.47679779,-3.575373152,-9.059527935,-0.406808116,10.66938845,,,
55:30.9,1.42E+12,-5.5703664,-9.971214,5.284012,12.58470791,-3.513145405,-9.022444833,-0.246005769,10.62352033,,,
55:30.9,1.42E+12,-6.838529,-10.9350605,5.0156198,13.83826105,-3.526458528,-9.041989904,-0.20031711,10.65974041,,,
55:30.9,1.42E+12,-8.643176,-11.727962,2.5095315,14.78334645,-3.631262005,-9.0818957,-0.177781318,10.74761017,,,
55:30.9,1.42E+12,-9.144484,-12.177776,-1.8200651,15.33728962,-3.74237075,-9.158023088,-0.221948654,10.8722736,,,
55:30.9,1.42E+12,-7.1326675,-11.032957,-3.3846116,13.56674911,-3.82099093,-9.236078118,-0.319402119,10.98504988,,,
55:30.9,1.42E+12,-5.76107,-9.193881,1.5572118,10.96094357,-3.870278236,-9.314301159,-0.33238227,11.07222775,,,
55:30.9,1.42E+12,-3.7738023,-8.605156,2.5204587,9.728463684,-3.877768779,-9.398750043,-0.339683415,11.14194446,,,
55:31.0,1.42E+12,-3.1451097,-7.3832464,1.7413288,8.211958866,-3.867709087,-9.475030194,-0.353729717,11.19331989,,,
55:31.0,1.42E+12,-3.1641202,-5.313051,1.9098784,6.472078729,-3.852770762,-9.513940088,-0.348203454,11.2146144,,,
55:31.0,1.42E+12,-2.8455825,-4.4110274,2.8999195,5.997002217,-3.830583228,-9.550668814,-0.316457227,11.23682956,,,
55:31.0,1.42E+12,-2.9711714,-3.4795144,2.205813,5.079418366,-3.817224277,-9.596623255,-0.294065017,11.25915886,,,
55:31.0,1.42E+12,-3.315755,-3.09691,1.5899936,4.807615045,-3.818003271,-9.618276188,-0.262523465,11.27852467,,,
55:31.1,1.42E+12,-3.3391063,-2.4502547,1.6831,4.470593315,-3.830662658,-9.586487192,-0.203320049,11.26784616,,,
55:31.1,1.42E+12,-3.4814603,-1.2903168,1.9531385,4.195263194,-3.819845358,-9.430261045,-0.021240516,11.10799171,,,
55:31.1,1.42E+12,-3.599415,-1.8004559,1.229094,4.208099553,-3.777413189,-9.1066829,0.356243872,10.67671677,,,
55:31.1,1.42E+12,-3.2424073,-3.8296363,0.032931518,5.018007949,-3.756817236,-8.860612967,0.647058515,10.33546569,,,
55:31.1,1.42E+12,-3.5822008,-8.254584,-4.627627,10.11855974,-3.740412575,-8.878468682,0.70973227,10.30663891,,,
55:31.2,1.42E+12,-5.75628,-16.50438,-14.550043,22.74275863,-3.715005213,-9.098361433,0.442922819,10.58370423,,,
55:31.2,1.42E+12,-5.785918,-18.726208,-15.735727,25.13485264,-3.698747183,-9.399290737,0.128836178,10.93951062,,,
55:31.2,1.42E+12,-4.4795847,-8.643026,-9.945468,13.91692894,-3.667407258,-9.453178661,-0.12584543,11.04255836,,,
55:31.2,1.42E+12,-5.5519547,-5.795947,-5.210066,9.568802973,-3.597701191,-9.358657865,-0.322661663,10.94293767,,,
55:31.2,1.42E+12,-9.1588545,-6.6822543,-1.0394385,11.38497126,-3.611191518,-9.174638494,-0.337868815,10.81091704,,,
55:31.3,1.42E+12,-8.692424,-8.587492,-1.3528867,12.29363885,-3.75735186,-9.124611912,-0.402760405,10.83133555,,,
55:31.3,1.42E+12,-7.344477,-10.002649,3.5232234,12.89990049,-3.888705239,-9.1988178,-0.425778866,10.93262583,,,
55:31.3,1.42E+12,-7.1765265,-10.99763,3.503764,13.59142231,-3.994559606,-9.3080203,-0.496398336,11.02257639,,,
55:31.3,1.42E+12,-4.5011396,-8.982222,2.1969814,10.28432288,-4.029269053,-9.295528953,-0.583847103,10.98934747,,,
55:31.3,1.42E+12,-2.5424628,-6.4822702,3.884572,7.973320742,-4.033188449,-9.183971141,-0.540306015,10.90099003,,,
55:31.4,1.42E+12,-2.560725,-6.5436425,6.1378365,9.330037867,-4.066981443,-9.073824682,-0.380688958,10.84460716,,,
55:31.4,1.42E+12,-3.0573921,-8.460257,5.4021163,10.49316232,-4.08613549,-9.041531641,-0.263742353,10.84918286,,,
55:31.4,1.42E+12,-2.0926483,-11.434571,0.950224,11.66325497,-4.042056747,-9.108613559,-0.237513223,10.89952134,,,
55:31.4,1.42E+12,-0.94019485,-11.899505,-0.8735834,11.96851426,-3.95431777,-9.214975029,-0.260809677,10.97030767,,,
55:31.5,1.42E+12,-1.7781523,-10.458302,0.7590715,10.63551108,-3.893492215,-9.286315457,-0.260916597,11.01454313,,,
55:31.5,1.42E+12,-2.941084,-8.623717,2.0216959,9.33304475,-3.887816264,-9.307259661,-0.237595705,11.03566608,,,
55:31.5,1.42E+12,-3.6796482,-8.296797,0.9846524,9.129413545,-3.922705958,-9.309181192,-0.22664399,11.04957675,,,
55:31.5,1.42E+12,-3.82305,-8.313711,-0.667462,9.174911848,-3.965159515,-9.290457876,-0.235778056,11.04504827,,,
55:31.5,1.42E+12,-3.0376332,-8.458012,-0.51118696,9.0014718,-3.985065058,-9.267659386,-0.234672192,11.02852716,,,
55:31.5,1.42E+12,-2.2924829,-8.308023,-0.14295273,8.619696021,-3.975005366,-9.242655243,-0.231308779,11.00165199,,,
55:31.6,1.42E+12,-1.7877324,-8.745863,0.53169435,8.942527922,-3.946185703,-9.229204641,-0.225360943,10.98135045,,,
55:31.6,1.42E+12,-1.717229,-9.065149,1.3287867,9.321559737,-3.920051274,-9.221570518,-0.205626472,10.96933262,,,
55:31.6,1.42E+12,-1.8040484,-9.234147,0.5574408,9.425221573,-3.913981242,-9.197898314,-0.157362552,10.94214664,,,
55:31.6,1.42E+12,-2.5004003,-9.183104,-0.14130615,9.518475097,-3.914311166,-9.155829682,-0.099943179,10.89377519,,,
55:31.6,1.42E+12,-3.2150145,-9.3806925,-0.24069947,9.919256336,-3.924013442,-9.115401508,-0.096983009,10.85756273,,,
55:31.7,1.42E+12,-3.074307,-10.005493,0.0291893,10.46719187,-3.940500589,-9.085976978,-0.116601396,10.83216944,,,
55:31.7,1.42E+12,-2.5126748,-10.552306,-0.24459137,10.85009316,-3.960445846,-9.046960161,-0.104867633,10.79676213,,,
55:31.7,1.42E+12,-1.371448,-10.694061,-2.1249812,10.98905616,-3.959541603,-8.992836978,-0.096506449,10.74228918,,,
55:31.7,1.42E+12,-1.368604,-11.970457,-0.98255676,12.08843809,-3.94940554,-8.947713467,-0.059618871,10.69157931,,,
55:31.7,1.42E+12,-2.6002429,-11.944262,-0.05269043,12.22413327,-3.963809264,-8.893709447,0.014840575,10.63143235,,,
55:31.8,1.42E+12,-3.3738341,-12.624447,-2.1612058,13.2450077,-3.996536107,-8.844434365,-0.002572194,10.59155215,,,
55:31.8,1.42E+12,-2.8442354,-13.155094,-3.6187248,13.93704927,-3.977812799,-8.851197855,-0.111930496,10.60094504,,,
55:31.8,1.42E+12,-2.950664,-13.587095,-3.7443137,14.39914767,-3.924349485,-8.924991345,-0.296182041,10.63797442,,,
55:31.8,1.42E+12,-2.8538156,-14.249318,-4.229754,15.13532774,-3.843028803,-8.992629253,-0.484863139,10.66444517,,,
55:31.8,1.42E+12,-1.4374608,-14.47969,-0.93286014,14.5807388,-3.695973391,-9.048786967,-0.555116029,10.66031032,,,
55:31.9,1.42E+12,-2.7533743,-12.7195,3.311863,13.42889373,-3.565542581,-9.059842559,-0.450382803,10.62136346,,,
55:31.9,1.42E+12,-4.576433,-10.851384,4.770879,12.70659514,-3.51337453,-9.056136988,-0.283944219,10.6038093,,,
55:31.9,1.42E+12,-6.613547,-11.7335005,2.8136988,13.75975795,-3.530772019,-9.107965957,-0.258301627,10.66092796,,,
55:31.9,1.42E+12,-10.093361,-12.659025,0.05733078,16.1904335,-3.659742605,-9.190697978,-0.308569544,10.7928049,,,
55:31.9,1.42E+12,-9.323213,-12.087065,-3.8788838,15.75008509,-3.785826346,-9.286694276,-0.42326776,10.94664421,,,
55:32.0,1.42E+12,-7.272776,-10.4592,-1.1217673,12.78852991,-3.869676464,-9.391717724,-0.485138081,11.07555137,,,
55:32.0,1.42E+12,-3.974984,-9.742491,4.3595343,11.389564,-3.892725474,-9.500523104,-0.455350024,11.18560365,,,
55:32.0,1.42E+12,-3.43356,-8.757838,1.2855268,9.494295122,-3.902161977,-9.608243994,-0.474131375,11.27570318,,,
55:32.0,1.42E+12,-3.098856,-7.0561767,1.081501,7.782170812,-3.897735466,-9.689045355,-0.484508775,11.3364084,,,
55:32.0,1.42E+12,-2.9779074,-5.4649854,2.0416045,6.549973041,-3.89036406,-9.750570471,-0.477192356,11.37884472,,,
55:32.1,1.42E+12,-3.1591804,-4.6940885,2.9081526,6.361779562,-3.883786919,-9.8200352,-0.457702273,11.42305934,,,
55:32.1,1.42E+12,-3.1573842,-3.6678228,2.600542,5.494071147,-3.874765883,-9.858144729,-0.429713538,11.44930366,,,
55:32.1,1.42E+12,-3.3629067,-3.041076,1.8149757,4.883791714,-3.877225054,-9.842051661,-0.393345289,11.44656455,,,
55:32.2,1.42E+12,-3.3645535,-2.181713,1.7775536,4.38631835,-3.872783272,-9.718115518,-0.262627318,11.32958003,,,
55:32.2,1.42E+12,-3.3178506,-0.77583665,1.6786094,3.798392374,-3.823019407,-9.397124838,0.06856967,10.94296031,,,
55:32.2,1.42E+12,-3.1292427,-0.95097244,0.87747526,3.386217844,-3.768801544,-9.034364928,0.407614614,10.49911062,,,
55:32.2,1.42E+12,-2.7410998,-2.973716,-0.56851774,4.084094439,-3.73332226,-8.918664724,0.598980946,10.29844053,,,
55:32.2,1.42E+12,-3.408562,-8.484806,-6.7946706,11.39200493,-3.689579552,-8.973539398,0.566642076,10.33564874,,,
55:32.2,1.42E+12,-5.709876,-17.18232,-17.091608,24.89895316,-3.619192236,-9.187826453,0.23904678,10.61144428,,,
55:32.2,1.42E+12,-3.7971537,-16.926052,-13.943504,22.25603101,-3.51928876,-9.358001147,-0.017904593,10.81475841,,,
55:32.3,1.42E+12,-4.700675,-8.653056,-7.634424,12.46018272,-3.465333617,-9.330458432,-0.245611683,10.80578458,,,
55:32.3,1.42E+12,-7.9415855,-6.837332,-2.7945387,10.84561366,-3.480947066,-9.245554392,-0.374148473,10.74974767,,,
55:32.3,1.42E+12,-8.451575,-5.641319,-1.068029,10.2173522,-3.561568197,-9.177372698,-0.440781338,10.74838092,,,
55:32.3,1.42E+12,-6.8304462,-8.743169,-0.60549086,11.11146339,-3.649078062,-9.22351349,-0.532415274,10.81242465,,,
55:32.3,1.42E+12,-7.0563264,-10.548564,4.9302974,13.61513045,-3.74082503,-9.305246581,-0.557058929,10.89987551,,,
55:32.4,1.42E+12,-6.166726,-10.722802,2.7860065,12.67946468,-3.804280823,-9.351420969,-0.610448925,10.94449393,,,
55:32.4,1.42E+12,-3.585943,-7.100634,2.7388544,8.413044266,-3.834756226,-9.262973275,-0.573946264,10.8781631,,,
55:32.4,1.42E+12,-3.1252012,-6.3003983,4.384682,8.287782425,-3.879348192,-9.148705792,-0.466634725,10.80304612,,,
55:32.4,1.42E+12,-2.7647507,-6.9466043,5.82349,9.47692954,-3.899482853,-9.077038492,-0.363279245,10.7794016,,,
55:32.5,1.42E+12,-2.897824,-9.419013,3.9722896,10.62517174,-3.898599996,-9.093269022,-0.323471211,10.80577154,,,
55:32.5,1.42E+12,-1.1246114,-12.634776,0.37482056,12.69026421,-3.846456388,-9.181799206,-0.335916758,10.87844196,,,
55:32.5,1.42E+12,-0.49457154,-12.600946,0.8276289,12.63777713,-3.778528256,-9.269293798,-0.305404699,10.94911268,,,
55:32.5,1.42E+12,-1.5396981,-10.278076,0.53019744,10.40627819,-3.747958152,-9.306437961,-0.284151956,10.9777822,,,
55:32.5,1.42E+12,-2.8642936,-8.072863,0.25985962,8.569878754,-3.759627758,-9.301638777,-0.275931296,10.97676552,,,
55:32.5,1.42E+12,-3.8145177,-8.226892,-0.09430389,9.068692876,-3.800990723,-9.291047532,-0.28870677,10.97934032,,,
55:32.6,1.42E+12,-3.7523968,-8.194559,-0.29877868,9.017790619,-3.84252476,-9.27328039,-0.32192239,10.97314095,,,
55:32.6,1.42E+12,-2.726131,-8.0067,-0.15881974,8.459566114,-3.861342772,-9.248230451,-0.336539952,10.95343369,,,
55:32.6,1.42E+12,-2.0441492,-8.322543,0.15702347,8.571343203,-3.852031525,-9.230667981,-0.330451593,10.93410447,,,
55:32.6,1.42E+12,-1.8380278,-8.577463,0.44247985,8.783336845,-3.823929756,-9.214275543,-0.316509158,10.91092244,,,
55:32.6,1.42E+12,-2.3475683,-8.756042,0.38724473,9.073549852,-3.809098354,-9.188776543,-0.309201904,10.88248077,,,
55:32.7,1.42E+12,-2.8437862,-9.253008,0.20372635,9.682292158,-3.815855729,-9.162260257,-0.300052563,10.85864809,,,
55:32.7,1.42E+12,-3.2726445,-9.501342,-0.11091934,10.04977636,-3.854655658,-9.137919053,-0.25894926,10.83947912,,,
55:32.7,1.42E+12,-3.2527359,-9.743388,-0.8228389,10.30490002,-3.893107329,-9.092468665,-0.255689711,10.80308038,,,
55:32.7,1.42E+12,-2.6298811,-10.374027,-1.5673906,10.81634985,-3.893712191,-9.060423053,-0.28660196,10.77435011,,,
55:32.8,1.42E+12,-2.1056712,-11.047177,-1.7522562,11.38175613,-3.867831315,-9.028233869,-0.27825605,10.73632457,,,
55:32.8,1.42E+12,-1.9501446,-11.457923,-0.25162673,11.62541954,-3.849584564,-8.993597726,-0.209539762,10.68914845,,,
55:32.8,1.42E+12,-1.8452128,-11.86328,0.49666718,12.01619328,-3.827024336,-8.958417828,-0.122989132,10.64051673,,,
55:32.8,1.42E+12,-1.8627264,-12.558734,-0.24459137,12.69847921,-3.806798025,-8.923916114,-0.041659283,10.59078512,,,
55:32.8,1.42E+12,-1.705254,-13.053605,-1.7266594,13.27726807,-3.812263193,-8.894812339,-0.057859268,10.56418368,,,
55:32.8,1.42E+12,-2.4391778,-13.620326,-2.9147387,14.14067079,-3.805851019,-8.913196543,-0.184932772,10.57870974,,,
55:32.9,1.42E+12,-3.080444,-14.501843,-4.144731,15.39387478,-3.775320631,-8.987695706,-0.366883996,10.63355218,,,
55:32.9,1.42E+12,-2.4556434,-13.904585,-3.010839,14.43720264,-3.690465456,-9.032003553,-0.485752114,10.64737759,,,
55:32.9,1.42E+12,-2.8000772,-12.643907,0.7367679,12.97118512,-3.541622929,-9.031695022,-0.471886051,10.58167864,,,
55:32.9,1.42E+12,-4.11629,-10.659932,4.6291237,12.32910296,-3.435359195,-9.002569859,-0.298253245,10.51186268,,,
55:33.0,1.42E+12,-5.5678215,-9.968969,4.42899,12.24732345,-3.400564205,-8.992565145,-0.184972483,10.50081765,,,
55:33.0,1.42E+12,-7.8790154,-11.529774,2.0145109,14.109317,-3.480238315,-9.029040308,-0.232830104,10.55632281,,,
55:33.0,1.42E+12,-10.159074,-12.038416,-1.4238391,15.81637007,-3.617493703,-9.095990879,-0.288123286,10.68534475,,,
55:33.0,1.42E+12,-7.943382,-11.556418,-4.1854463,14.63441408,-3.71636158,-9.187832539,-0.395612006,10.82518645,,,
55:33.0,1.42E+12,-5.5036054,-9.581875,3.7094362,11.65598206,-3.767906438,-9.271850694,-0.361574624,10.92939071,,,
55:33.0,1.42E+12,-3.189717,-9.744885,1.1620336,10.31927324,-3.768529633,-9.374928173,-0.397209706,11.01015589,,,
55:33.1,1.42E+12,-3.3419504,-7.9646373,0.920885,8.686317343,-3.772296291,-9.462618265,-0.43148842,11.07530377,,,
55:33.1,1.42E+12,-3.0285022,-6.2930636,1.7935703,7.210504107,-3.765471709,-9.528985359,-0.431925265,11.1227877,,,
55:33.1,1.42E+12,-3.2183075,-4.9422727,2.4724085,6.395026692,-3.762487097,-9.585323312,-0.417744553,11.16378175,,,
55:33.1,1.42E+12,-3.437751,-3.5604959,2.7455904,5.659817103,-3.764934044,-9.642153093,-0.39596943,11.20177001,,,
55:33.1,1.42E+12,-3.4817595,-3.4334102,2.121688,5.330339087,-3.772128264,-9.692815088,-0.370577334,11.24144595,,,
55:33.2,1.42E+12,-3.5375936,-2.8273206,1.6576529,4.822460305,-3.78838324,-9.689827427,-0.32514528,11.25651464,,,
55:33.2,1.42E+12,-3.2967443,-1.6977695,1.4355148,3.976386173,-3.786101246,-9.551316478,-0.157182312,11.10517548,,,
55:33.2,1.42E+12,-2.8951294,-1.2591815,0.9286688,3.290856732,-3.728657438,-9.226354467,0.210578439,10.66419392,,,
55:33.2,1.42E+12,-2.5625212,-2.4691155,-0.11870316,3.560496692,-3.703460856,-8.931314947,0.492717231,10.28265241,,,
55:33.2,1.42E+12,-2.8322604,-5.624254,-3.3096175,7.113894856,-3.665329946,-8.869502661,0.580978588,10.17354449,,,
55:33.3,1.42E+12,-4.884343,-14.322516,-13.298196,20.14530437,-3.602937242,-9.022261518,0.366618235,10.3633341,,,
55:33.3,1.42E+12,-4.0222855,-18.865868,-17.82164,26.26234202,-3.512543578,-9.292150273,0.024707807,10.69078287,,,
55:33.3,1.42E+12,-3.2078292,-12.507541,-10.0312395,16.35097905,-3.438612619,-9.368974192,-0.16765441,10.79771176,,,
55:33.3,1.42E+12,-4.493356,-7.447613,-5.0097823,10.03768431,-3.386307101,-9.305689478,-0.37051318,10.72470265,,,
55:33.3,1.42E+12,-7.063811,-5.27039,-1.2014017,8.894818865,-3.404614958,-9.194415763,-0.451888857,10.64746499,,,
55:33.4,1.42E+12,-6.524033,-5.6503,-1.2412189,8.71949087,-3.464575978,-9.16481711,-0.533114843,10.653719,,,
55:33.4,1.42E+12,-6.2686644,-8.847053,4.228407,11.63812381,-3.528728289,-9.216789655,-0.536304129,10.72209331,,,
55:33.4,1.42E+12,-9.82467,-14.153518,4.5767326,17.82674097,-3.672808274,-9.363869527,-0.561748157,10.89249763,,,
55:33.5,1.42E+12,-3.5747163,-13.88812,0.5266049,14.35046294,-3.686622403,-9.455075792,-0.632068253,10.96852398,,,
55:33.5,1.42E+12,-2.3391857,-7.734865,2.9457242,8.601000952,-3.711409633,-9.355077608,-0.579600832,10.88506963,,,
55:33.5,1.42E+12,-2.7008336,-4.8644342,6.12152,8.272256605,-3.75643539,-9.197189612,-0.471562238,10.79597737,,,
55:33.5,1.42E+12,-3.9166055,-4.901258,6.5716343,9.085620837,-3.804943704,-9.087458633,-0.348267608,10.76902518,,,
55:33.5,1.42E+12,-4.4563828,-9.820179,3.9830673,11.49609013,-3.83743532,-9.123118143,-0.272283778,10.82874378,,,
55:33.5,1.42E+12,-1.5491285,-13.545332,1.3985417,13.70517191,-3.791202888,-9.231657735,-0.241817542,10.9233658,,,
55:33.5,1.42E+12,-0.065413974,-11.6932335,-1.431623,11.78072719,-3.71595834,-9.303059255,-0.264936813,10.97975226,,,
55:33.6,1.42E+12,-1.5521224,-8.99734,0.540526,9.146222137,-3.691998981,-9.323276398,-0.250664451,10.99376565,,,
55:33.6,1.42E+12,-3.1304402,-7.8406954,0.17034577,8.444239331,-3.714168185,-9.313442773,-0.250392568,10.99117169,,,
55:33.6,1.42E+12,-3.6935692,-7.415879,0.1950444,8.287083751,-3.752036377,-9.289736978,-0.255442271,10.98104408,,,
55:33.6,1.42E+12,-3.4440382,-8.004155,0.728535,8.744064251,-3.774413314,-9.274392345,-0.248477163,10.97431988,,,
55:33.6,1.42E+12,-2.6610165,-8.892109,0.42661285,9.291534308,-3.77068332,-9.267027059,-0.243928459,10.96634523,,,
55:33.7,1.42E+12,-2.262096,-9.108259,0.29159364,9.389488121,-3.750059881,-9.259004957,-0.235713909,10.95286996,,,
55:33.7,1.42E+12,-2.2547612,-9.2537565,-0.13247451,9.52541374,-3.72969305,-9.249012478,-0.221624839,10.93696208,,,
55:33.7,1.42E+12,-2.740052,-9.158405,-0.45759842,9.570457848,-3.731941436,-9.224203865,-0.198976019,10.91153571,,,
55:33.8,1.42E+12,-3.3340168,-8.855885,0.14355148,9.463771668,-3.757009714,-9.17948362,-0.160286067,10.87239317,,,
55:33.8,1.42E+12,-3.3421001,-9.161998,0.34952316,9.758791261,-3.785416969,-9.132628008,-0.148017702,10.83429872,,,
55:33.8,1.42E+12,-2.3710694,-9.681717,-0.30970597,9.972639167,-3.796148736,-9.088106314,-0.164474297,10.79259353,,,
55:33.8,1.42E+12,-1.0591974,-10.857223,-1.2976515,10.98567658,-3.779750185,-9.0533816,-0.18596532,10.75763837,,,
55:33.8,1.42E+12,-0.6502478,-12.298126,-0.7677534,12.33921272,-3.758219446,-9.037963661,-0.166395809,10.73849439,,,
55:33.8,1.42E+12,-1.142574,-12.441228,-0.33096176,12.49796644,-3.731758144,-9.013900437,-0.113665668,10.70496981,,,
55:33.8,1.42E+12,-2.4078927,-12.066258,-0.6902147,12.3235111,-3.718032608,-8.96419462,-0.043165335,10.64230933,,,
55:33.9,1.42E+12,-3.2706985,-12.383299,-1.7537531,12.92745964,-3.734666385,-8.933147967,-0.017510521,10.61149824,,,
55:33.9,1.42E+12,-3.1784904,-13.25793,-2.566563,13.87309463,-3.742389104,-8.945679049,-0.084925437,10.62990456,,,
55:33.9,1.42E+12,-3.0991552,-14.201268,-4.1641903,15.12022674,-3.72163125,-9.017951212,-0.264380825,10.68686627,,,
55:33.9,1.42E+12,-2.0520828,-13.966557,-3.595972,14.56731866,-3.649881481,-9.099534641,-0.42815556,10.73421311,,,
55:33.9,1.42E+12,-2.0348685,-14.261593,1.3693525,14.47096579,-3.530613177,-9.155286049,-0.441322058,10.7415937,,,
55:34.0,1.42E+12,-3.6068995,-11.066487,5.248236,12.76796145,-3.39689533,-9.135450763,-0.30515726,10.67938128,,,
55:34.0,1.42E+12,-4.7178893,-10.519974,4.373904,12.33123549,-3.331068948,-9.114298845,-0.130476641,10.63237763,,,
55:34.0,1.42E+12,-7.25152,-12.061618,1.6657361,14.17186818,-3.366740675,-9.164905845,-0.172184807,10.68372225,,,
55:34.0,1.42E+12,-9.8888855,-12.694352,-1.5096108,16.16216427,-3.503458399,-9.225099049,-0.226708162,10.80296492,,,
55:34.0,1.42E+12,-7.4856334,-12.178675,-3.5595977,14.73178767,-3.588023359,-9.311099818,-0.318146584,10.92634187,,,
55:34.1,1.42E+12,-5.8899517,-9.963132,2.807412,11.90953788,-3.646420287,-9.385999173,-0.297455937,11.02224052,,,
55:34.1,1.42E+12,-2.8413913,-10.166409,2.3285577,10.80978989,-3.63872812,-9.4926142,-0.300391668,11.11233772,,,
55:34.1,1.42E+12,-3.0915213,-8.0999565,0.25566834,8.673647765,-3.631662208,-9.585256253,-0.351206404,11.17384447,,,
55:34.1,1.42E+12,-2.8801606,-5.984854,1.8881736,6.904998336,-3.619384679,-9.637326535,-0.355972004,11.20598038,,,
55:34.1,1.42E+12,-3.1365774,-4.677623,2.5394692,6.177959091,-3.611200675,-9.675087808,-0.337975753,11.23364362,,,
55:34.2,1.42E+12,-3.2513888,-3.7564385,3.328628,5.98014412,-3.610275053,-9.717101461,-0.299340789,11.27453664,,,
55:34.2,1.42E+12,-3.4688864,-3.2379167,2.4604335,5.345185724,-3.621984379,-9.757483812,-0.268080285,11.31646172,,,
55:34.2,1.42E+12,-3.7899687,-2.5719516,1.9270926,4.969153214,-3.647034328,-9.759582508,-0.226329351,11.34520981,,,
55:34.2,1.42E+12,-3.8365219,-1.2678635,1.695075,4.381741366,-3.667529461,-9.67067658,-0.12419277,11.28945157,,,
55:34.3,1.42E+12,-3.522475,-0.4020639,1.0174342,3.688449248,-3.639736236,-9.38658572,0.167962949,10.95359739,,,
55:34.3,1.42E+12,-2.883304,-1.8480569,0.19863693,3.430482895,-3.616491716,-9.039283453,0.535723702,10.48764108,,,
55:34.3,1.42E+12,-2.740651,-5.191504,-1.9905607,6.198807433,-3.606957467,-8.889976576,0.699819188,10.2804539,,,
55:34.3,1.42E+12,-5.056635,-13.207635,-12.439732,18.83502355,-3.618452957,-9.007528045,0.548187561,10.45999144,,,
55:34.3,1.42E+12,-4.735253,-18.714233,-18.336868,26.62491063,-3.570931365,-9.281892188,0.198484168,10.82183005,,,
55:34.3,1.42E+12,-3.2260914,-12.131672,-10.813213,16.56836463,-3.503626434,-9.414165086,0.003137349,10.98201114,,,
55:34.4,1.42E+12,-5.0807347,-6.7636847,-4.595893,9.627228484,-3.479382971,-9.371647365,-0.176950406,10.94097246,,,
55:34.4,1.42E+12,-7.797136,-4.8713202,-1.3019925,9.28548732,-3.438004726,-9.182214757,-0.296924388,10.76666116,,,
55:34.5,1.42E+12,-6.7231193,-5.129234,0.6822812,8.483801164,-3.502257848,-9.003461982,-0.29374732,10.64693337,,,
55:34.5,1.42E+12,-7.7733355,-7.571106,5.857619,12.33118369,-3.613158865,-9.000119961,-0.234320896,10.72305955,,,
55:34.5,1.42E+12,-10.637329,-14.5172615,3.1680121,18.27402392,-3.775128159,-9.197116437,-0.294596567,10.92717725,,,
55:34.5,1.42E+12,-1.8363812,-13.269007,1.2784914,13.45635103,-3.732674602,-9.367886824,-0.402619892,11.01637583,,,
55:34.5,1.42E+12,-1.4278808,-7.8049197,3.9977367,8.8846786,-3.670868438,-9.326759084,-0.402320516,10.96308171,,,
55:34.5,1.42E+12,-2.5776398,-4.8413825,6.7177305,8.672434175,-3.691858465,-9.149127461,-0.293765643,10.86037278,,,
55:34.5,1.42E+12,-3.4117053,-6.2924647,6.8008075,9.873491161,-3.760150124,-9.03890769,-0.125756857,10.8214496,,,
55:34.5,1.42E+12,-3.18822,-10.652897,3.225792,11.57819914,-3.793539871,-9.072694567,-0.07095551,10.87108178,,,
55:34.6,1.42E+12,-0.76760375,-13.213173,-0.882415,13.26483368,-3.745318719,-9.182336967,-0.092440424,10.96946126,,,
55:34.6,1.42E+12,-0.65638506,-11.314372,-0.549657,11.34671661,-3.68333537,-9.261898049,-0.107638411,11.03190274,,,
55:34.6,1.42E+12,-2.427053,-9.047336,0.7740404,9.399149616,-3.66258057,-9.283187457,-0.10670973,11.04527183,,,
55:34.6,1.42E+12,-3.9161563,-7.9430823,-0.14669494,8.857220557,-3.688195668,-9.263819565,-0.118409889,11.03640829,,,
55:34.6,1.42E+12,-4.6461883,-7.4351883,-0.3980223,8.776531919,-3.736850612,-9.229675265,-0.132483683,11.02389898,,,
55:34.7,1.42E+12,-3.8239481,-7.641759,0.047151946,8.545249147,-3.768874835,-9.196777357,-0.128817837,11.00389562,,,
55:34.7,1.42E+12,-2.6470954,-8.757239,0.32033387,9.154177339,-3.766977761,-9.188590296,-0.112941668,10.9954001,,,
55:34.7,1.42E+12,-1.902843,-9.221574,0.26824218,9.419670503,-3.737770133,-9.196053337,-0.11039696,10.99450007,,,
55:34.7,1.42E+12,-1.8049465,-8.714278,0.44098297,8.910159309,-3.706399651,-9.186916194,-0.108530433,10.97718105,,,
55:34.7,1.42E+12,-2.2406905,-8.918155,0.6933582,9.221438506,-3.703738857,-9.171333296,-0.088059736,10.96185043,,,
55:34.8,1.42E+12,-2.7499316,-9.124725,0.6887178,9.554949625,-3.738243637,-9.135976194,-0.047521587,10.93265192,,,
55:34.8,1.42E+12,-2.647245,-9.343121,-0.46373567,9.721978548,-3.778998682,-9.075669969,-0.041317144,10.87923898,,,
55:34.8,1.42E+12,-2.1631517,-9.880803,-1.9763402,10.30608625,-3.799826798,-9.023416398,-0.074896295,10.83450673,,,
55:34.8,1.42E+12,-1.2591815,-11.032957,-2.106719,11.30265204,-3.776383712,-9.002328622,-0.103804546,10.81367287,,,
55:34.8,1.42E+12,-1.6772621,-11.793824,-0.07304809,11.9127171,-3.743864602,-8.99029852,-0.069504444,10.79296384,,,
55:34.9,1.42E+12,-2.6351202,-11.51241,0.45086244,11.81874441,-3.732775414,-8.954675663,-0.007924333,10.75103832,,,
55:34.9,1.42E+12,-3.0374835,-12.340338,-0.9913884,12.7472781,-3.731516808,-8.9166975,0.056826726,10.7026108,,,
55:34.9,1.42E+12,-2.2540128,-13.282479,-1.9538869,13.61332054,-3.735637829,-8.902736724,0.090338667,10.68314145,,,
55:34.9,1.42E+12,-2.0445983,-14.332695,-1.8676661,14.59776369,-3.735836396,-8.904187786,0.024277063,10.68572916,,,
55:34.9,1.42E+12,-2.346221,-15.02755,-3.7796402,15.67219487,-3.710108263,-8.985025806,-0.159965309,10.74499923,,,
55:35.0,1.42E+12,-1.6810043,-14.382242,-2.74589,14.73820112,-3.648131019,-9.063847602,-0.305267227,10.79412098,,,
55:35.0,1.42E+12,-2.444267,-13.109139,0.82583266,13.36061249,-3.550023814,-9.085225582,-0.322408114,10.77756474,,,
55:35.0,1.42E+12,-3.9219942,-10.406509,4.0968304,11.85164492,-3.428250523,-9.038534908,-0.207990946,10.68959496,,,
55:35.0,1.42E+12,-5.322781,-9.825867,3.7567377,11.78951814,-3.384110678,-8.990518418,-0.058677979,10.62954864,,,
55:35.1,1.42E+12,-8.396789,-11.871963,0.8003856,14.56331652,-3.435270623,-9.029474153,-0.099637701,10.68370739,,,
55:35.1,1.42E+12,-10.017768,-12.607083,-3.0400283,16.38706775,-3.58172729,-9.079283827,-0.209200681,10.79752939,,,
55:35.1,1.42E+12,-7.533085,-11.869417,-3.8502932,14.57584259,-3.672371447,-9.156211592,-0.292995814,10.91798234,,,
55:35.1,1.42E+12,-4.0420446,-10.889405,5.7146664,12.94506384,-3.696083366,-9.256304469,-0.214904125,11.04124899,,,
55:35.1,1.42E+12,-2.305805,-10.018517,1.6643889,10.41429834,-3.679128827,-9.365302306,-0.232762906,11.12770489,,,
55:35.1,1.42E+12,-2.782414,-7.2426887,0.5840854,7.780714815,-3.669557912,-9.436450269,-0.28877398,11.16445123,,,
55:35.2,1.42E+12,-2.4797432,-5.9812617,2.0255878,6.784366131,-3.649371317,-9.492436902,-0.297648382,11.19382226,,,
55:35.2,1.42E+12,-2.7137067,-4.565057,2.7014322,5.958329078,-3.627406786,-9.533112522,-0.281845533,11.21400952,,,
55:35.2,1.42E+12,-3.2352223,-3.2082784,2.9518616,5.428922594,-3.615135366,-9.572712827,-0.256196827,11.23538057,,,
55:35.2,1.42E+12,-3.337759,-2.6644592,2.090403,4.754972416,-3.611365651,-9.618884159,-0.234299504,11.25714635,,,
55:35.2,1.42E+12,-3.477718,-2.1496797,1.4813195,4.348557549,-3.623496549,-9.625039727,-0.208122309,11.27588256,,,
55:35.3,1.42E+12,-3.1258,-0.92717195,1.315165,3.515669558,-3.631356733,-9.538012542,-0.140658519,11.22112465,,,
55:35.3,1.42E+12,-3.3061748,-1.0746154,0.8861572,3.58759873,-3.595633055,-9.290399897,0.131298403,10.90995271,,,
55:35.3,1.42E+12,-3.2403116,-2.9157865,0.22917344,4.36508312,-3.565124047,-8.967982621,0.510197208,10.45567052,,,
55:35.3,1.42E+12,-3.4015265,-6.6401916,-2.9599447,8.026443773,-3.568704355,-8.855911593,0.67046799,10.2813456,,,
55:35.3,1.42E+12,-5.2298245,-15.362703,-13.463452,21.08620989,-3.571747004,-9.031401762,0.489497398,10.51520237,,,
55:35.4,1.42E+12,-4.415518,-19.007324,-17.636774,26.30267975,-3.502734392,-9.319891636,0.15613451,10.86249201,,,
55:35.4,1.42E+12,-3.5293608,-10.367291,-10.848091,15.41486908,-3.437555647,-9.426790758,-0.079179208,11.00394237,,,
55:35.4,1.42E+12,-5.716313,-7.1462893,-4.6090655,10.2464223,-3.395575596,-9.41812103,-0.292785014,10.96139622,,,
55:35.4,1.42E+12,-9.247919,-6.4839168,-1.0768607,11.34569574,-3.36722029,-9.254175219,-0.379415071,10.82000177,,,
55:35.4,1.42E+12,-8.056696,-7.475904,-0.1646576,10.9921155,-3.49416549,-9.135948628,-0.408867092,10.76971125,,,
55:35.5,1.42E+12,-6.40548,-10.499915,4.7692323,13.19181435,-3.595749147,-9.190948532,-0.393122284,10.85761198,,,
55:35.5,1.42E+12,-7.2211337,-10.176588,4.3535466,13.2159405,-3.690514329,-9.299830277,-0.441370935,10.9503366,,,
55:35.5,1.42E+12,-3.431614,-7.107819,1.8265017,8.10143037,-3.690920629,-9.31647016,-0.542887379,10.91417209,,,
55:35.5,1.42E+12,-2.3311024,-5.4658837,4.190087,7.270952626,-3.673428433,-9.210612746,-0.52320789,10.8262691,,,
55:35.5,1.42E+12,-3.0496082,-6.725963,6.0026674,9.516864209,-3.719999952,-9.078220705,-0.382696004,10.74977993,,,
55:35.6,1.42E+12,-2.9696746,-9.799971,6.5062203,12.1321598,-3.767209943,-9.047314562,-0.238698508,10.76580938,,,
55:35.6,1.42E+12,-0.5734575,-14.082116,1.0629396,14.13381354,-3.729381463,-9.150065174,-0.232802606,10.86243518,,,
55:35.6,1.42E+12,0.49741563,-12.731625,-2.2586532,12.939985,-3.639308567,-9.247790536,-0.275903795,10.9457569,,,
55:35.6,1.42E+12,-1.2135265,-9.900711,0.7373666,10.00202151,-3.569254244,-9.298107326,-0.252732593,10.97076689,,,
55:35.6,1.42E+12,-2.8993208,-8.017628,1.6643889,8.68669156,-3.550384299,-9.305778121,-0.219727757,10.97365347,,,
55:35.7,1.42E+12,-4.440516,-7.664212,0.07005432,8.857947592,-3.58698472,-9.283471448,-0.224835503,10.96760796,,,
55:35.8,1.42E+12,-4.4488983,-8.132289,-1.1954141,9.346434365,-3.638945032,-9.261241142,-0.254706039,10.96611335,,,
55:35.8,1.42E+12,-3.1232553,-8.278235,-1.0229727,8.906759878,-3.665849293,-9.252342305,-0.284582686,10.96604397,,,
55:35.8,1.42E+12,-2.3285577,-8.269853,-0.103285216,8.592049665,-3.667642501,-9.239111652,-0.300840715,10.9531993,,,
55:35.8,1.42E+12,-1.9245479,-8.430768,0.6601273,8.672802416,-3.650797936,-9.224949264,-0.301424194,10.9351963,,,
55:35.8,1.42E+12,-2.227069,-8.682096,1.1596385,9.037886298,-3.642222916,-9.211458958,-0.268294109,10.92123523,,,
55:35.8,1.42E+12,-2.941533,-8.916508,0.8852591,9.430822603,-3.658108248,-9.191779468,-0.209894123,10.90337271,,,
55:35.8,1.42E+12,-3.3579671,-9.504036,0.13082795,10.08066264,-3.700940608,-9.160576999,-0.1642299,10.87843415,,,
55:35.8,1.42E+12,-3.194956,-10.088571,-0.7827223,10.61129883,-3.731913952,-9.125775917,-0.178713047,10.85187459,,,
55:35.8,1.42E+12,-2.2993684,-10.181078,-2.1909938,10.66498467,-3.725061875,-9.098605877,-0.232628481,10.82832848,,,
55:35.9,1.42E+12,-1.1602373,-11.178604,-2.6854157,11.55503334,-3.686750728,-9.074897019,-0.267200466,10.80399695,,,
55:35.9,1.42E+12,-1.3054353,-11.825409,-0.35670823,11.90259216,-3.667392003,-9.045160897,-0.234604983,10.76908413,,,
55:35.9,1.42E+12,-2.1065693,-11.895762,0.4843927,12.09055102,-3.668656718,-8.99542757,-0.186603783,10.71791652,,,
55:35.9,1.42E+12,-2.18321,-12.821138,-1.7066011,13.11718235,-3.665329963,-8.950398754,-0.144296863,10.66577341,,,
55:35.9,1.42E+12,-1.5217355,-13.687088,-2.741998,14.04174526,-3.662079579,-8.936211938,-0.144217434,10.65156002,,,
55:36.0,1.42E+12,-2.5734484,-14.578783,-3.3747323,15.18395102,-3.664715934,-8.966204672,-0.22994325,10.68877101,,,
55:36.0,1.42E+12,-1.9356248,-14.593902,-3.788472,15.2013532,-3.624177783,-9.051661672,-0.390867788,10.75713241,,,
55:36.1,1.42E+12,-1.4870077,-14.418766,1.0445279,14.53282641,-3.545896695,-9.145394305,-0.446219009,10.81311829,,,
55:36.1,1.42E+12,-3.597469,-11.609858,5.0928593,13.178308,-3.447951389,-9.140045223,-0.358617505,10.78485281,,,
55:36.1,1.42E+12,-5.3866982,-10.225387,4.485872,12.39750396,-3.353439761,-9.091439183,-0.205027703,10.70343314,,,
55:36.1,1.42E+12,-7.988588,-11.922557,1.68789,14.45039364,-3.36273574,-9.092523672,-0.092003556,10.70087296,,,
55:36.1,1.42E+12,-10.277478,-13.114827,-1.8685642,16.76653731,-3.489989483,-9.137940448,-0.246763364,10.77886221,,,
55:36.1,1.42E+12,-8.186176,-11.553874,-4.0737786,14.73435285,-3.609997054,-9.169274264,-0.363868823,10.86702659,,,
55:36.1,1.42E+12,-5.8877063,-10.725496,0.68377805,12.25434218,-3.673370367,-9.240351964,-0.361834279,10.95832511,,,
55:36.1,1.42E+12,-4.003275,-10.552905,4.0891967,12.00464678,-3.704462852,-9.333650807,-0.319719812,11.06486145,,,
55:36.2,1.42E+12,-3.041076,-8.731643,1.0289602,9.303144189,-3.711143859,-9.418683174,-0.353851894,11.13312298,,,
55:36.2,1.42E+12,-2.8663893,-6.3475504,1.4307247,7.110172773,-3.703616654,-9.48274995,-0.384895504,11.16743421,,,
55:36.2,1.42E+12,-2.5899143,-5.776338,2.9133916,6.968614452,-3.688354518,-9.546257681,-0.368099818,11.21261058,,,
55:36.2,1.42E+12,-3.099305,-4.229455,2.7075696,5.901263782,-3.680631803,-9.588702074,-0.343074306,11.24429846,,,
55:36.2,1.42E+12,-3.504662,-3.0828393,2.3858886,5.242043332,-3.688363681,-9.632695286,-0.321222804,11.27953058,,,
55:36.3,1.42E+12,-3.6905754,-2.2526655,2.0056791,4.76629807,-3.696208591,-9.656737124,-0.298375418,11.30358567,,,
55:36.3,1.42E+12,-3.5569034,-1.1029065,1.8779947,4.170710807,-3.702669648,-9.619739573,-0.264726005,11.29961888,,,
55:36.3,1.42E+12,-3.3702416,0.040715333,1.6343014,3.745814631,-3.702031181,-9.483394534,-0.17096588,11.21225911,,,
55:36.3,1.42E+12,-3.1952555,-1.387315,0.5942642,3.533758701,-3.660509365,-9.198182534,0.115926287,10.85404582,,,
55:36.4,1.42E+12,-2.7195446,-4.1954756,-1.3305831,5.173817713,-3.625897663,-8.895899914,0.448705693,10.42284455,,,
55:36.4,1.42E+12,-4.4426117,-11.279494,-10.835667,16.25962678,-3.644535436,-8.914516301,0.448959244,10.4400845,,,
55:36.4,1.42E+12,-3.6375856,-18.435064,-17.953217,25.98849004,-3.602112428,-9.144899459,0.176629622,10.76135119,,,
55:36.4,1.42E+12,-2.705474,-14.643898,-11.462414,18.79229291,-3.468593142,-9.311429687,-0.035320445,10.91332256,,,
55:36.4,1.42E+12,-4.2448726,-6.998247,-6.9470534,10.73573264,-3.390800828,-9.301681585,-0.173736686,10.90809026,,,
55:36.4,1.42E+12,-8.509504,-6.6618967,-2.2230272,11.03333023,-3.433740093,-9.223354681,-0.31643586,10.86403956,,,
55:36.5,1.42E+12,-8.094717,-5.244943,-0.5417235,9.660607369,-3.451568324,-9.122708865,-0.416339331,10.79148174,,,
55:36.5,1.42E+12,-7.7954893,-8.909323,0.37272492,11.84418058,-3.540627003,-9.159474252,-0.446008245,10.8678644,,,
55:36.5,1.42E+12,-7.451355,-12.645703,3.8731956,15.18018906,-3.645121954,-9.306001177,-0.452475416,11.02927739,,,
55:36.5,1.42E+12,-5.3016753,-12.932507,0.09520203,13.9773589,-3.691082508,-9.43266534,-0.573035934,11.12030789,,,
55:36.5,1.42E+12,-1.7163309,-8.602012,2.962639,9.258381719,-3.665504065,-9.408217197,-0.64535392,11.06165936,,,
55:36.6,1.42E+12,-1.941313,-6.7551527,4.8701224,8.550957628,-3.693419483,-9.258687334,-0.567656312,10.94772353,,,
55:36.6,1.42E+12,-2.2903872,-6.12661,6.43422,9.174988318,-3.750313418,-9.12389111,-0.390250736,10.87088686,,,
55:36.6,1.42E+12,-2.710264,-9.616452,5.1522856,11.24134009,-3.780859082,-9.118089905,-0.300150348,10.89617908,,,
55:36.6,1.42E+12,-1.1837384,-13.042378,0.5164261,13.10616482,-3.745847196,-9.220635824,-0.323578161,10.98637241,,,
55:36.6,1.42E+12,-0.31000534,-12.322525,-0.083376616,12.32670586,-3.66155106,-9.315703436,-0.326709404,11.05716339,,,
55:36.7,1.42E+12,-1.8269508,-9.345217,0.35595977,9.528774179,-3.608041927,-9.340457069,-0.295048713,11.06088461,,,
55:36.7,1.42E+12,-3.3883538,-7.7107654,0.7288344,8.45387746,-3.613452101,-9.328876056,-0.259297548,11.05164212,,,
55:36.7,1.42E+12,-4.4021955,-7.808063,0.064964905,8.963782319,-3.65577124,-9.319451771,-0.255863872,11.0592285,,,
55:36.8,1.42E+12,-3.8960981,-7.975116,-0.17842895,8.87771888,-3.696006958,-9.31015275,-0.272977265,11.06341046,,,
55:36.8,1.42E+12,-2.599195,-8.481214,-0.27018815,8.87467223,-3.703601366,-9.306053118,-0.3021574,11.06007957,,,
55:36.8,1.42E+12,-1.7333953,-8.706644,-0.028440857,8.87756261,-3.678945495,-9.301770179,-0.320804338,11.04878854,,,
55:36.8,1.42E+12,-1.4953903,-8.567584,0.7283853,8.727555952,-3.640933723,-9.282658914,-0.30860929,11.02117412,,,
55:36.8,1.42E+12,-2.0344193,-8.567883,0.8955876,8.851528576,-3.617249301,-9.251624465,-0.274358068,10.98526044,,,
55:36.8,1.42E+12,-2.6586213,-8.974737,0.6749464,9.38454709,-3.624580993,-9.227005261,-0.215869492,10.95912906,,,
55:36.8,1.42E+12,-3.2030392,-9.383388,0.09984238,9.915513047,-3.666270827,-9.190368199,-0.159027491,10.92566947,,,
55:36.9,1.42E+12,-3.334466,-9.919272,-0.71326673,10.48901187,-3.707679617,-9.151467444,-0.166304195,10.89682089,,,
55:36.9,1.42E+12,-2.8970754,-10.490635,-2.329007,11.12972337,-3.723812395,-9.122791383,-0.223720515,10.87721216,,,
55:36.9,1.42E+12,-2.0818708,-11.143277,-2.896327,11.70023583,-3.721744248,-9.088549322,-0.248000636,10.84829489,,,
55:36.9,1.42E+12,-1.7935703,-11.718532,-0.6593788,11.87331744,-3.727291897,-9.04837471,-0.205498203,10.80404126,,,
55:36.9,1.42E+12,-2.0064275,-11.802806,0.36209702,11.97760807,-3.715720042,-8.991722118,-0.12923638,10.73860569,,,
55:37.0,1.42E+12,-2.2773643,-12.543166,-1.1573932,12.8006625,-3.722694317,-8.949870363,-0.075540894,10.689612,,,
55:37.0,1.42E+12,-1.5581099,-13.626015,-1.1135345,13.75994006,-3.724145382,-8.933691771,-0.119582984,10.67383881,,,
55:37.0,1.42E+12,-2.0549269,-15.23936,-1.4409037,15.44464377,-3.692664931,-9.00776324,-0.252925086,10.72009056,,,
55:37.0,1.42E+12,-1.8884729,-14.891334,-3.4170942,15.39463189,-3.621272578,-9.102986648,-0.414210111,10.78125643,,,
55:37.0,1.42E+12,-2.0441492,-13.406272,-1.0835967,13.60444254,-3.499957501,-9.133266546,-0.470771064,10.76399213,,,
55:37.1,1.42E+12,-3.29405,-10.915152,2.5744963,11.6884276,-3.357438562,-9.08837522,-0.38009636,10.66035723,,,
55:37.1,1.42E+12,-4.156407,-9.467213,4.79438,11.39692593,-3.275198378,-9.045790301,-0.199113531,10.59224648,,,
55:37.1,1.42E+12,-5.338798,-10.395133,2.9624894,12.05561685,-3.263996168,-9.039048199,-0.152609218,10.58819086,,,
55:37.1,1.42E+12,-8.692574,-12.372222,-0.97192883,15.15181064,-3.359696148,-9.076177118,-0.255897494,10.6524187,,,
55:37.1,1.42E+12,-7.3449264,-12.919634,-4.276008,15.46444732,-3.447529829,-9.161646322,-0.364162151,10.77815958,,,
55:37.2,1.42E+12,-4.6690907,-12.328663,0.38155654,13.18870444,-3.484319654,-9.283709844,-0.385573746,10.90221124,,,
55:37.2,1.42E+12,-2.6211991,-11.41167,5.033283,12.74483561,-3.484958119,-9.39871662,-0.342310656,11.02009331,,,
55:37.2,1.42E+12,-3.4440382,-8.960217,0.9782158,9.649030727,-3.491993491,-9.495262783,-0.377603591,11.09657835,,,
55:37.2,1.42E+12,-3.4630485,-7.546108,0.90307206,8.351765682,-3.491144236,-9.586349899,-0.407865153,11.16004207,,,
55:37.2,1.42E+12,-3.575914,-6.0576034,1.87545,7.280043447,-3.488804207,-9.664001693,-0.41052289,11.21134299,,,
55:37.3,1.42E+12,-3.507955,-4.9361353,2.484234,6.545425773,-3.48780526,-9.742230852,-0.398150659,11.25980657,,,
55:37.3,1.42E+12,-3.6269577,-4.0519238,2.5234525,5.995058061,-3.493044364,-9.8257541,-0.380004719,11.30570949,,,
55:37.3,1.42E+12,-3.79895,-3.2852182,2.2267694,5.49392225,-3.50536466,-9.864486818,-0.346688286,11.34571283,,,
55:37.3,1.42E+12,-3.7236567,-2.5710535,1.8791922,4.899724344,-3.525856744,-9.831335347,-0.281182668,11.34011909,,,
55:37.3,1.42E+12,-3.5691779,-1.2458593,1.5795153,4.097080041,-3.508031564,-9.626567292,-0.0278116,11.09190385,,,
55:37.4,1.42E+12,-3.4307158,-1.0702744,0.6288423,3.648388799,-3.503809731,-9.272183831,0.3514141,10.63598341,,,
55:37.4,1.42E+12,-3.0499077,-2.7047255,-0.9372011,4.182800845,-3.510838991,-9.028527249,0.566214363,10.33783052,,,
55:37.4,1.42E+12,-3.4275723,-5.609585,-4.229455,7.816903821,-3.494159393,-9.000187208,0.621675555,10.27826258,,,
55:37.4,1.42E+12,-5.1668057,-13.060191,-11.874956,18.39236391,-3.42594106,-9.130764643,0.424697416,10.42844694,,,
55:37.4,1.42E+12,-2.0179536,-18.694176,-17.646055,25.7861903,-3.30192548,-9.405238786,0.075629426,10.75754047,,,
55:37.5,1.42E+12,-2.5427623,-13.691578,-10.224788,17.27632015,-3.19472697,-9.502835827,-0.140646348,10.86840046,,,
55:37.5,1.42E+12,-4.5729904,-9.226214,-4.2224193,11.12942455,-3.135984836,-9.433050337,-0.305862978,10.7857318,,,
55:37.5,1.42E+12,-7.9522133,-7.6953473,-2.5662634,11.35965555,-3.190077448,-9.326169527,-0.360178599,10.73230928,,,
55:37.5,1.42E+12,-8.784333,-10.562934,-2.3552024,13.9386893,-3.334322389,-9.366188343,-0.468705975,10.82782576,,,
55:37.5,1.42E+12,-7.453301,-10.63254,5.817203,14.22822735,-3.44681194,-9.445318696,-0.449377799,10.94368841,,,
55:37.6,1.42E+12,-6.354286,-8.708141,4.108506,11.53639856,-3.52974865,-9.498003002,-0.49684135,10.99188046,,,
55:37.6,1.42E+12,-3.6568954,-5.0091834,2.7657986,6.79076168,-3.549067658,-9.403977112,-0.545545166,10.90105232,,,
55:37.6,1.42E+12,-2.5017476,-5.7877145,4.7792616,7.911872195,-3.575965805,-9.255922755,-0.458548524,10.79504635,,,
55:37.6,1.42E+12,-2.229314,-7.3826475,7.081474,10.46998563,-3.615135369,-9.155108929,-0.312327082,10.7571541,,,
55:37.7,1.42E+12,-2.595752,-11.4818735,5.3179913,12.91713509,-3.63082519,-9.198714163,-0.211061133,10.82630433,,,
55:37.7,1.42E+12,0.13112731,-15.007043,1.2828324,15.06234354,-3.558999045,-9.347617788,-0.199755051,10.96117098,,,
55:37.7,1.42E+12,0.5255571,-12.043506,-2.5728498,12.32646759,-3.458432665,-9.4340554,-0.253588004,11.02979721,,,
55:37.7,1.42E+12,-1.2569362,-9.069191,0.30596375,9.160989456,-3.404572218,-9.456383461,-0.243702439,11.03557824,,,
55:37.7,1.42E+12,-3.3994308,-8.012987,2.0146606,8.934368907,-3.420903561,-9.446827808,-0.197072873,11.03679654,,,
55:37.7,1.42E+12,-5.147945,-8.047116,1.0922786,9.615117585,-3.490588249,-9.433368053,-0.174201047,11.05184868,,,
55:37.8,1.42E+12,-4.63571,-8.125104,0.24324417,9.357686142,-3.554676406,-9.424337849,-0.184101887,11.06470848,,,
55:37.8,1.42E+12,-3.182382,-8.298892,-0.36793488,8.895759647,-3.578104216,-9.418848237,-0.20988806,11.06561116,,,
55:37.8,1.42E+12,-1.9390677,-8.289462,0.2773732,8.517752032,-3.563419449,-9.404863033,-0.218001798,11.04792146,,,
55:37.8,1.42E+12,-1.6582516,-8.278535,0.9993219,8.501916512,-3.531893171,-9.382315012,-0.199645073,11.01907256,,,
55:37.8,1.42E+12,-2.205364,-8.3234415,1.8223104,8.801370573,-3.508850273,-9.349747043,-0.147898601,10.9846309,,,
55:37.9,1.42E+12,-3.0418246,-8.550369,1.7372873,9.240112234,-3.511804339,-9.310149778,-0.064913003,10.9460674,,,
55:37.9,1.42E+12,-3.621569,-9.18969,1.1573932,9.945135662,-3.543226751,-9.270280655,0.01781598,10.91024903,,,
55:37.9,1.42E+12,-3.4602044,-9.936487,-0.45969406,10.53176657,-3.577239692,-9.23391239,0.021891179,10.88287044,,,
55:37.9,1.42E+12,-2.5426126,-10.604697,-3.418591,11.42852754,-3.588182245,-9.209461186,-0.055265719,10.87166472,,,
55:37.9,1.42E+12,-1.6525635,-11.790831,-3.8705013,12.51940263,-3.575431208,-9.19410741,-0.110635272,10.86592472,,,
55:38.0,1.42E+12,-1.5602056,-12.287947,0.09250763,12.38694638,-3.575473977,-9.1667999,-0.086022168,10.83790444,,,
55:38.0,1.42E+12,-2.8363018,-11.956536,1.1781999,12.34469587,-3.591420404,-9.099803492,-0.032571074,10.7746402,,,
55:38.1,1.42E+12,-2.9166846,-12.607383,-2.1989274,13.125869,-3.612404316,-9.053192247,-0.007710527,10.72833892,,,
55:38.1,1.42E+12,-1.8342856,-13.383369,-3.6741097,13.99922325,-3.608121386,-9.052724839,-0.060578139,10.73639566,,,
55:38.1,1.42E+12,-1.9309845,-14.861695,-2.6547294,15.21992995,-3.580303722,-9.133266533,-0.167297031,10.80846714,,,
55:38.1,1.42E+12,-1.798959,-14.966178,-3.2846196,15.42762014,-3.532192539,-9.245490308,-0.332174574,10.89072621,,,
55:38.1,1.42E+12,-0.55040544,-14.453943,-1.284928,14.52137922,-3.434470241,-9.328323165,-0.418856562,10.94104789,,,
55:38.1,1.42E+12,-1.8693128,-12.1219425,4.105812,12.93419934,-3.295220013,-9.32321542,-0.315229198,10.89579051,,,
55:38.1,1.42E+12,-3.7741017,-10.009385,6.6349525,12.58786028,-3.222346039,-9.263822584,-0.092556534,10.83708466,,,
55:38.1,1.42E+12,-5.935607,-10.596464,3.1150222,12.53873371,-3.248193311,-9.228471584,-0.036771521,10.82381995,,,
55:38.2,1.42E+12,-8.850495,-12.816498,-1.5483801,15.65219996,-3.375321799,-9.257141543,-0.171091176,10.88315391,,,
55:38.2,1.42E+12,-7.66047,-13.165422,-4.1115003,15.7770584,-3.461371427,-9.342962053,-0.274962933,11.0082157,,,
55:38.2,1.42E+12,-5.3140993,-11.299403,-1.7875828,12.61394513,-3.499147974,-9.41955991,-0.329874257,11.09519896,,,
55:38.2,1.42E+12,-3.3281791,-11.513607,6.7928743,13.77617739,-3.49409216,-9.530906922,-0.229518659,11.22777312,,,
55:38.2,1.42E+12,-3.3667986,-9.59849,3.3994308,10.72485305,-3.491211417,-9.626057018,-0.210841173,11.31306755,,,
55:38.3,1.42E+12,-3.004552,-7.7555223,1.0150392,8.37888796,-3.47850926,-9.701640661,-0.241625118,11.36171714,,,
55:38.3,1.42E+12,-2.956951,-6.202502,2.4230113,7.285984768,-3.461325607,-9.761177065,-0.237620181,11.39828985,,,
55:38.3,1.42E+12,-3.2850688,-5.1196537,2.7430458,6.672842819,-3.452374833,-9.813189314,-0.219990516,11.43447594,,,
55:38.3,1.42E+12,-3.5890865,-4.334387,2.646796,6.21884086,-3.452781131,-9.876220492,-0.198209277,11.47777718,,,
55:38.3,1.42E+12,-3.993695,-3.3891022,2.5288413,5.816412279,-3.464270503,-9.923543508,-0.159433788,11.52202256,,,
55:38.4,1.42E+12,-3.9184017,-2.738705,2.2861958,5.29915731,-3.48199487,-9.924236967,-0.093650177,11.54480534,,,
55:38.4,1.42E+12,-3.6073484,-1.5341597,1.4676979,4.18577897,-3.48566377,-9.841065022,0.022618249,11.47070075,,,
55:38.4,1.42E+12,-3.2081287,-1.5941849,0.3820056,3.602699478,-3.44569077,-9.607064898,0.272760323,11.16887087,,,
55:38.4,1.42E+12,-3.0100906,-2.687661,-0.99363375,4.155896426,-3.465938464,-9.280401327,0.612605654,10.7274363,,,
55:38.4,1.42E+12,-3.7348833,-5.7886124,-3.6754568,7.808096405,-3.490267464,-9.119116314,0.746265475,10.53420724,,,
55:38.5,1.42E+12,-5.1989884,-12.47865,-9.985286,16.80631199,-3.503042933,-9.185492559,0.62865595,10.65006209,,,
55:38.5,1.42E+12,-3.3268318,-18.61499,-14.183306,23.63793205,-3.408647392,-9.40834241,0.391573448,10.90063916,,,
55:38.5,1.42E+12,-2.6140141,-14.010415,-10.823543,17.8961974,-3.282722517,-9.478699165,0.218750171,10.98140463,,,
55:38.5,1.42E+12,-3.3693435,-8.838969,-6.24172,11.33308948,-3.199376446,-9.442095676,-0.027350299,10.92232018,,,
55:38.5,1.42E+12,-5.721402,-7.023694,-1.932631,9.262925069,-3.186460446,-9.407719206,-0.150638809,10.87592277,,,
55:38.6,1.42E+12,-5.7296352,-4.114943,-0.59411454,7.079155847,-3.228761258,-9.389469402,-0.219208465,10.88180836,,,
55:38.6,1.42E+12,-4.8927255,-4.859794,2.9092002,7.484638024,-3.277556725,-9.370532249,-0.257372983,10.8730893,,,
55:38.6,1.42E+12,-8.79032,-9.659264,3.7357814,13.58407779,-3.411454807,-9.41699381,-0.325652424,10.9366422,,,
55:38.7,1.42E+12,-10.518926,-16.448694,1.0377918,19.55209325,-3.573152235,-9.518357494,-0.413003434,11.07204951,,,
55:38.7,1.42E+12,-1.0921289,-12.777729,-0.21240829,12.82607583,-3.598116648,-9.47286129,-0.44351855,11.02641139,,,
55:38.7,1.42E+12,-0.592917,-5.7676563,3.9517822,7.016693831,-3.62094265,-9.344782724,-0.310362795,10.91804866,,,
55:38.7,1.42E+12,-1.7396823,-2.888244,6.4538293,7.281508123,-3.630794611,-9.218640949,-0.184896151,10.8796919,,,
55:38.7,1.42E+12,-3.6375856,-6.800209,5.702841,9.591520574,-3.635654913,-9.193890378,-0.109627164,10.89310316,,,
55:38.7,1.42E+12,-2.5493486,-12.896881,5.598508,14.28887713,-3.582622333,-9.292865173,-0.017663298,10.98848601,,,
55:38.7,1.42E+12,0.31943572,-14.544804,-2.0357666,14.69005474,-3.481496911,-9.423879459,-0.064173722,11.09730985,,,
55:38.8,1.42E+12,0.613125,-11.1039095,-3.018922,11.52330762,-3.404037584,-9.481124714,-0.1182755,11.15093328,,,
55:38.8,1.42E+12,-2.1321661,-8.797955,-0.58363634,9.07142634,-3.407978368,-9.491502122,-0.135847123,11.16223276,,,
55:38.8,1.42E+12,-4.258794,-7.5041947,0.2665956,8.632574219,-3.461050662,-9.475699259,-0.150800721,11.16489924,,,
55:38.8,1.42E+12,-4.585564,-7.3528595,0.85816544,8.707949698,-3.509626172,-9.455891463,-0.170477149,11.16299269,,,
55:38.8,1.42E+12,-3.4569113,-7.536228,0.9821077,8.349221744,-3.518097329,-9.435194708,-0.185888978,11.14481126,,,
55:38.9,1.42E+12,-2.6964927,-7.8736267,-0.09729767,8.323132651,-3.499218221,-9.408336273,-0.211494914,11.11170915,,,
55:38.9,1.42E+12,-2.8521688,-8.601712,-0.94423646,9.111306091,-3.486809331,-9.381095967,-0.221383534,11.08272016,,,
55:38.9,1.42E+12,-3.4226327,-8.900492,-0.30611342,9.540800693,-3.504768925,-9.346316273,-0.157863584,11.04419513,,,
55:38.9,1.42E+12,-3.565286,-9.195079,0.7458989,9.890253144,-3.543804078,-9.293341743,-0.063651335,10.99053901,,,
55:39.0,1.42E+12,-3.6242633,-9.392967,1.1545491,10.13390829,-3.585927704,-9.234260518,-0.041977019,10.94455864,,,
55:39.0,1.42E+12,-2.6550288,-9.905052,-0.4324507,10.26383197,-3.582228256,-9.192393498,-0.074847439,10.90209203,,,
55:39.0,1.42E+12,-1.7212706,-11.131003,-3.1249018,11.68875577,-3.557832051,-9.162263294,-0.093744876,10.87276319,,,
55:39.0,1.42E+12,-1.7859361,-12.075089,-2.4080424,12.44170448,-3.556845327,-9.135563702,-0.067906768,10.8409771,,,
55:39.0,1.42E+12,-1.8607805,-11.867921,0.16660355,12.01406716,-3.555412592,-9.074466273,-0.010328544,10.77555132,,,
55:39.0,1.42E+12,-2.088457,-12.630884,-0.024998017,12.80240244,-3.561320715,-9.026807212,0.056194345,10.72197545,,,
55:39.1,1.42E+12,-1.3678555,-13.675562,-1.2491524,13.8004495,-3.578003369,-9.010921886,0.056924459,10.7072626,,,
55:39.1,1.42E+12,-1.1229647,-14.91214,-1.369053,15.01689965,-3.562771775,-9.067864692,-0.05480748,10.74976669,,,
55:39.1,1.42E+12,-1.660497,-15.624808,-1.9061362,15.82798883,-3.519636985,-9.182465161,-0.229115412,10.81589176,,,
55:39.1,1.42E+12,-2.180815,-14.181958,-2.1983285,14.5160785,-3.443008577,-9.255638508,-0.337551141,10.85624574,,,
55:39.1,1.42E+12,-3.1442115,-11.0669365,1.3406122,11.58276265,-3.326553812,-9.219933171,-0.278592114,10.773196,,,
55:39.2,1.42E+12,-4.1194334,-9.464219,5.6399717,11.76224696,-3.254287759,-9.144398416,-0.079582482,10.69126107,,,
55:39.2,1.42E+12,-5.5616846,-10.14201,4.037554,12.25130788,-3.25934052,-9.120778151,0.039297861,10.68386031,,,
55:39.2,1.42E+12,-8.234975,-12.487183,-0.13442047,14.95869718,-3.359479212,-9.140647049,-0.102075501,10.70799337,,,
55:39.2,1.42E+12,-8.0105915,-12.700339,-2.9344976,15.29965565,-3.454250496,-9.20395009,-0.231339346,10.80135668,,,
55:39.2,1.42E+12,-5.1711464,-11.298804,-2.444267,12.66405022,-3.498466708,-9.276261961,-0.301937432,10.88880897,,,
55:39.3,1.42E+12,-2.8774662,-11.297157,4.9262557,12.65596947,-3.496844569,-9.380234512,-0.250850812,10.9984005,,,
55:39.3,1.42E+12,-2.987188,-10.753787,3.597469,11.72642359,-3.490765369,-9.495216824,-0.233413603,11.1015348,,,
55:39.3,1.42E+12,-2.9846435,-8.7527485,1.744622,9.41076028,-3.478429798,-9.585387467,-0.251825318,11.16667601,,,
55:39.3,1.42E+12,-2.9385393,-6.9668126,1.8458116,7.783219866,-3.456896008,-9.658401965,-0.265764699,11.20681494,,,
55:39.3,1.42E+12,-3.0708642,-5.62635,2.5469537,6.897317914,-3.439599324,-9.717333496,-0.26044311,11.23943047,,,
55:39.4,1.42E+12,-3.3790731,-4.9201183,2.5460556,6.489075298,-3.434940644,-9.786434692,-0.23843581,11.28643651,,,
55:39.4,1.42E+12,-3.8371208,-3.8278399,2.1588106,5.834065267,-3.447777218,-9.832019488,-0.202174483,11.33197459,,,
55:39.4,1.42E+12,-3.9064264,-3.2943494,2.0065773,5.489923283,-3.466069785,-9.844400884,-0.140945686,11.35919963,,,
55:39.4,1.42E+12,-3.5170863,-2.7644513,1.8067429,4.824562875,-3.461624949,-9.78268331,-0.02906406,11.29831119,,,
55:39.5,1.42E+12,-3.4711318,-1.4724879,1.2338841,3.967297135,-3.426362569,-9.558067757,0.199898596,11.03629048,,,
55:39.5,1.42E+12,-3.2588732,-2.0981867,-0.13831238,3.878372375,-3.424975659,-9.220990139,0.486531118,10.63303416,,,
55:39.5,1.42E+12,-2.9731174,-3.9377115,-2.074087,5.352273892,-3.432304298,-9.015424761,0.665091445,10.37703572,,,
55:39.5,1.42E+12,-3.9957907,-8.352631,-7.5047936,11.91867085,-3.445088934,-9.005499496,0.639314433,10.38898636,,,
55:39.5,1.42E+12,-5.808222,-17.367634,-15.104341,23.73839233,-3.446860771,-9.216600312,0.370504025,10.68440406,,,
55:39.5,1.42E+12,-1.9558328,-18.43731,-14.607822,23.6039858,-3.369844396,-9.508893516,0.084509995,11.02164549,,,
55:39.6,1.42E+12,-2.3697221,-9.705218,-8.1617775,12.90044384,-3.31835453,-9.60777972,-0.141428326,11.13217214,,,
55:39.6,1.42E+12,-4.7909374,-7.84309,-2.6997857,9.578934426,-3.236734477,-9.570714945,-0.27276643,11.05043452,,,
55:39.7,1.42E+12,-6.363417,-5.0278945,-2.2167404,8.407540486,-3.151928171,-9.337637404,-0.339185454,10.82299466,,,
55:39.7,1.42E+12,-5.506599,-5.8071737,0.82493454,8.045272893,-3.242019398,-9.195381173,-0.318015192,10.72542726,,,
55:39.7,1.42E+12,-7.8594065,-8.380772,5.078639,12.56185432,-3.390315102,-9.248710065,-0.295018115,10.8385938,,,
55:39.7,1.42E+12,-8.618927,-14.274167,1.2482543,16.72112092,-3.530707851,-9.481075841,-0.401254339,11.03123896,,,
55:39.7,1.42E+12,-1.8887722,-11.2655735,1.7181271,11.55130155,-3.495017781,-9.572205729,-0.482575031,11.07123449,,,
55:39.7,1.42E+12,-0.8152048,-7.24209,3.7378771,8.190491539,-3.459627091,-9.456801831,-0.52054709,10.94677764,,,
55:39.7,1.42E+12,-2.3219714,-5.7464004,6.181246,8.753311993,-3.513533359,-9.277242573,-0.352852956,10.82561962,,,
55:39.7,1.42E+12,-3.559448,-7.377109,5.2898498,9.75058553,-3.59868791,-9.20118542,-0.183286184,10.78944162,,,
55:39.8,1.42E+12,-2.5560846,-11.635604,2.6879604,12.21253373,-3.607339308,-9.259096624,-0.116518904,10.85354585,,,
55:39.8,1.42E+12,-0.07634125,-13.518987,-0.18636246,13.52048699,-3.52198313,-9.381847488,-0.125762946,10.95329918,,,
55:39.8,1.42E+12,-0.49457154,-11.088491,-0.49397278,11.11050146,-3.438493488,-9.458084865,-0.153357603,11.00233084,,,
55:39.8,1.42E+12,-2.2378464,-8.745863,0.5803432,9.046263005,-3.413614612,-9.482771294,-0.161556879,11.01655618,,,
55:39.8,1.42E+12,-4.0987763,-7.8490777,0.033081207,8.854890302,-3.442232645,-9.482270294,-0.158896086,11.02740837,,,
55:39.9,1.42E+12,-4.8921266,-7.622898,0.0199086,9.057696889,-3.483864437,-9.462294498,-0.139219656,11.02631431,,,
55:39.9,1.42E+12,-3.9119651,-7.7353144,0.13501923,8.669301587,-3.493850812,-9.438515363,-0.130216949,11.00852861,,,
55:39.9,1.42E+12,-2.415078,-7.839797,0.41418868,8.213803687,-3.470377179,-9.410856547,-0.136986545,10.97431536,,,
55:40.0,1.42E+12,-1.6193326,-8.177794,0.23650818,8.339933387,-3.429460226,-9.386057098,-0.155722074,10.93770362,,,
55:40.0,1.42E+12,-1.8594333,-8.55965,0.8797206,8.803352126,-3.413223583,-9.358599914,-0.128943068,10.90789791,,,
55:40.0,1.42E+12,-2.583777,-9.25705,1.1645782,9.681173517,-3.430825755,-9.320355976,-0.04140266,10.86692685,,,
55:40.0,1.42E+12,-2.8767178,-9.643546,0.5604346,10.07906601,-3.453086606,-9.270732649,0.019178504,10.81870974,,,
55:40.0,1.42E+12,-2.767894,-10.072853,-1.1705658,10.51160449,-3.471599126,-9.234098608,-0.008110667,10.78804723,,,
55:40.0,1.42E+12,-1.5685881,-10.935659,-4.1549096,11.80306656,-3.460989557,-9.19950218,-0.092394577,10.76765262,,,
55:40.0,1.42E+12,-1.1160791,-12.090957,-2.566862,12.41070724,-3.455851263,-9.167163302,-0.119286609,10.73929054,,,
55:40.1,1.42E+12,-1.6106507,-12.140803,1.2154725,12.30734198,-3.465804039,-9.110605404,-0.066541191,10.68399344,,,
55:40.1,1.42E+12,-1.626817,-12.163856,0.6593788,12.28986195,-3.465116692,-9.039973731,-0.014183742,10.61178677,,,
55:40.1,1.42E+12,-1.3862672,-13.072765,-2.8036697,13.44170693,-3.44890143,-9.017337139,-0.026537644,10.58986082,,,
55:40.1,1.42E+12,-1.1436218,-13.476176,-2.4019053,13.73624182,-3.408073069,-9.066505292,-0.102915552,10.63380937,,,
55:40.1,1.42E+12,-1.8061441,-14.260245,-2.6508377,14.61655515,-3.360863083,-9.164383373,-0.272115744,10.69206056,,,
55:40.2,1.42E+12,-1.3789325,-14.473402,-3.687432,14.99926582,-3.275500796,-9.252779129,-0.429768519,10.74814133,,,
55:40.2,1.42E+12,-0.87927157,-14.589261,-0.20971389,14.6172376,-3.125384399,-9.29567868,-0.43130512,10.74117277,,,
55:40.2,1.42E+12,-3.0421238,-12.109368,5.4365444,13.6179046,-3.023987099,-9.283618047,-0.260467528,10.70685132,,,
55:40.2,1.42E+12,-5.527705,-10.327773,5.071604,12.76477908,-3.031263805,-9.263801088,-0.107082406,10.70890701,,,
55:40.3,1.42E+12,-7.749235,-11.527977,2.2155428,14.06604161,-3.130687658,-9.2685117,-0.162403077,10.737684,,,
55:40.3,1.42E+12,-9.604627,-12.817845,-1.8922151,16.12843725,-3.265737434,-9.310635333,-0.274437446,10.82752101,,,
55:40.3,1.42E+12,-7.754175,-12.806768,-3.6708164,15.41477958,-3.363074811,-9.393370424,-0.384956597,10.95005201,,,
55:40.3,1.42E+12,-4.432133,-10.920391,1.1526031,11.84175816,-3.393556316,-9.474055698,-0.39910371,11.03287933,,,
55:40.3,1.42E+12,-3.5732195,-10.313703,3.4552648,11.44898345,-3.403808464,-9.569715963,-0.380566748,11.12577046,,,
55:40.3,1.42E+12,-3.3150065,-8.919353,1.7745597,9.67952417,-3.402500983,-9.651332998,-0.396311563,11.19088166,,,
55:40.4,1.42E+12,-2.8803103,-6.9957023,1.8089882,7.778719458,-3.382974238,-9.715983251,-0.403450795,11.23056848,,,
55:40.4,1.42E+12,-2.5979974,-5.5269566,2.6740394,6.666882814,-3.356271605,-9.761546663,-0.38982912,11.25458806,,,
55:40.4,1.42E+12,-2.691104,-4.5443997,2.9961693,6.072119881,-3.339414824,-9.797872141,-0.365555112,11.28004841,,,
55:40.4,1.42E+12,-3.2841706,-3.570974,2.975213,5.691179512,-3.335599289,-9.840698388,-0.330017787,11.31522968,,,
55:40.4,1.42E+12,-3.4491274,-2.8113039,2.0344193,4.89272637,-3.339482028,-9.8552518,-0.285676324,11.33593079,,,
55:40.5,1.42E+12,-3.4242792,-1.9351758,1.7082477,4.288205175,-3.348689411,-9.814383724,-0.20848582,11.3142151,,,
55:40.5,1.42E+12,-3.2078292,-0.5522017,1.5521224,3.60613073,-3.332608564,-9.65519129,-0.0236508,11.14457142,,,
55:40.5,1.42E+12,-3.4221835,-1.4956897,0.78856015,3.8171003,-3.283913901,-9.331274059,0.300694122,10.73801444,,,
55:40.5,1.42E+12,-3.044519,-4.644841,-0.5210664,5.578095916,-3.306131987,-9.0497951,0.58817893,10.37013914,,,
55:40.5,1.42E+12,-3.9261854,-10.115365,-6.837631,12.82531631,-3.337896544,-9.058165447,0.615202328,10.36860592,,,
55:40.6,1.42E+12,-6.1343937,-17.926271,-17.039217,25.48169724,-3.36531402,-9.263944651,0.322560873,10.6931521,,,
55:40.6,1.42E+12,-3.3985326,-15.737225,-15.22499,22.15875888,-3.304806175,-9.482502416,0.057086391,10.97378921,,,
55:40.7,1.42E+12,-2.8897407,-6.961274,-8.236173,11.16442935,-3.251400903,-9.506055484,-0.127834171,11.03744547,,,
55:40.7,1.42E+12,-4.4577303,-6.643934,-3.333867,8.667634487,-3.18197894,-9.47060981,-0.299517967,10.95797159,,,
55:40.7,1.42E+12,-6.6868944,-5.726342,-0.69829786,8.831374147,-3.142549703,-9.296164402,-0.339243521,10.79695635,,,
55:40.7,1.42E+12,-5.2000365,-6.0583515,1.6308587,8.148846704,-3.210126526,-9.189894565,-0.341024509,10.7275185,,,
55:40.7,1.42E+12,-3.8309834,-10.525362,1.8980529,11.36055825,-3.271673028,-9.256900116,-0.378571942,10.79221374,,,
55:40.7,1.42E+12,-7.118148,-14.230457,1.2711567,15.96213572,-3.369554183,-9.430044129,-0.478777846,10.93933259,,,
55:40.7,1.42E+12,-4.461173,-14.072536,-1.3024416,14.8200772,-3.387956734,-9.566685496,-0.613314405,11.0427916,,,
55:40.7,1.42E+12,-1.6772621,-6.530919,3.1485527,7.441740068,-3.370021581,-9.462508251,-0.603914562,10.94542847,,,
55:40.8,1.42E+12,-2.652634,-4.113596,5.4175344,7.30122032,-3.422598984,-9.270561496,-0.48954932,10.81850466,,,
55:40.8,1.42E+12,-3.8570292,-4.916376,6.146518,8.765107572,-3.491220569,-9.144599965,-0.3540291,10.77063948,,,
55:40.8,1.42E+12,-4.054319,-9.051976,4.697681,10.97469721,-3.528291438,-9.150847169,-0.270001798,10.80999528,,,
55:40.8,1.42E+12,-1.5118561,-13.489798,1.5343094,13.66069048,-3.475497148,-9.26596391,-0.239364488,10.90807283,,,
55:40.8,1.42E+12,0.59097105,-12.875924,-1.0674303,12.93360248,-3.363597196,-9.373168522,-0.261555078,10.98717295,,,
55:40.9,1.42E+12,-1.3406122,-9.930349,0.6936575,10.04441303,-3.311120607,-9.417965147,-0.250154297,11.01523644,,,
55:40.9,1.42E+12,-3.186873,-8.315508,0.8162526,8.942600356,-3.326871525,-9.427673535,-0.241948911,11.03010985,,,
55:40.9,1.42E+12,-4.440516,-7.9174857,0.27138564,9.081762622,-3.384446696,-9.42236112,-0.241237126,11.04524922,,,
55:40.9,1.42E+12,-4.3402243,-8.241262,0.03891907,9.314368525,-3.435075084,-9.415863406,-0.258396341,11.05567812,,,
55:40.9,1.42E+12,-3.1611264,-8.121212,-0.047451325,8.714875564,-3.446857725,-9.392683039,-0.283131637,11.03595776,,,
55:41.0,1.42E+12,-1.9758911,-7.9944253,0.18351837,8.237029835,-3.428473507,-9.359027514,-0.290823805,10.99836518,,,
55:41.0,1.42E+12,-1.6805552,-8.231233,0.42302033,8.411682868,-3.406282919,-9.321443433,-0.258301639,10.95550964,,,
55:41.0,1.42E+12,-1.6414865,-9.12712,0.5590874,9.290391603,-3.407770641,-9.284534473,-0.162097619,10.90423056,,,
55:41.0,1.42E+12,-1.9342777,-9.688752,0.19309846,9.881833461,-3.424468572,-9.235509882,-0.105771895,10.85262089,,,
55:41.0,1.42E+12,-2.3143373,-10.109528,-0.51717454,10.3839387,-3.438829523,-9.19405529,-0.141132039,10.81336776,,,
55:41.1,1.42E+12,-1.9218535,-10.346784,-2.217339,10.75481531,-3.444850676,-9.156972188,-0.199840565,10.78204028,,,
55:41.1,1.42E+12,-1.511407,-10.590327,-3.5069075,11.25778741,-3.447404549,-9.106310188,-0.214192357,10.73747049,,,
55:41.1,1.42E+12,-1.1506572,-11.1601925,-0.7012917,11.24125076,-3.447548129,-9.059045218,-0.179485957,10.68655231,,,
55:41.1,1.42E+12,-0.7189549,-11.136242,2.8936327,11.52848178,-3.425360594,-8.995290055,-0.0663335,10.6235304,,,
55:41.1,1.42E+12,-1.2243041,-11.984379,0.83376616,12.07557148,-3.422204913,-8.944493667,0.02593585,10.56386317,,,
55:41.2,1.42E+12,-1.6825012,-12.937147,-2.3816972,13.26171423,-3.438597354,-8.910777055,-0.01839034,10.53619943,,,
55:41.2,1.42E+12,-1.8854791,-13.511652,-1.91871,13.77683633,-3.41499236,-8.939395096,-0.168497572,10.53944293,,,
55:41.2,1.42E+12,-2.7996283,-14.168187,-2.8163934,14.71419428,-3.359317326,-9.017770892,-0.329477111,10.57922692,,,
55:41.3,1.42E+12,-2.4165747,-14.506484,-3.4001794,15.09434103,-3.250487523,-9.078556749,-0.444083687,10.60021262,,,
55:41.3,1.42E+12,-2.212549,-14.46981,-1.3939013,14.70420808,-3.099628789,-9.11227032,-0.433914017,10.57114672,,,
55:41.3,1.42E+12,-3.329676,-12.030632,3.6545005,13.0068529,-3.009332891,-9.09643081,-0.284417754,10.52200536,,,
55:41.3,1.42E+12,-5.050198,-10.429861,5.762866,12.94206803,-3.021946462,-9.086419994,-0.190330756,10.54446066,,,
55:41.3,1.42E+12,-6.8491573,-11.587554,3.5552568,13.92200468,-3.088802336,-9.112416953,-0.188290103,10.59493048,,,
55:41.3,1.42E+12,-9.877958,-12.389885,-0.54247195,15.85489137,-3.222740121,-9.183244137,-0.235576463,10.72095838,,,
55:41.3,1.42E+12,-8.79526,-12.08452,-4.397256,15.57973307,-3.343453381,-9.287097559,-0.362234508,10.88016274,,,
55:41.4,1.42E+12,-5.9962306,-10.367591,-1.0469229,12.02238629,-3.412805079,-9.385886016,-0.438172514,10.98945873,,,
55:41.4,1.42E+12,-3.9838157,-10.189461,3.6339931,11.52830468,-3.43918695,-9.501091349,-0.425155702,11.10080944,,,
55:41.4,1.42E+12,-3.319946,-9.29043,1.726809,10.01578756,-3.43991706,-9.617814941,-0.450633335,11.18906675,,,
55:41.4,1.42E+12,-2.0082238,-7.118896,1.099763,7.478042641,-3.410510864,-9.705724984,-0.469707953,11.24182831,,,
55:41.4,1.42E+12,-2.4059467,-5.7230487,1.8035994,6.464892632,-3.389728568,-9.783028512,-0.467762,11.2862505,,,
55:41.5,1.42E+12,-2.91414,-4.882397,2.7749295,6.326946035,-3.383734911,-9.871399845,-0.442806753,11.34177734,,,
55:41.5,1.42E+12,-3.3232393,-3.8529878,2.6903553,5.755644714,-3.381715642,-9.919507969,-0.403994607,11.38133947,,,
55:41.5,1.42E+12,-3.4569113,-3.5175352,1.8185682,5.256470291,-3.390131811,-9.896501729,-0.356246962,11.37477569,,,
55:41.5,1.42E+12,-3.393144,-2.5918603,1.7515078,4.61507807,-3.379253415,-9.742960816,-0.180958415,11.2072198,,,
55:41.6,1.42E+12,-3.201692,-1.2522959,1.4166541,3.718331013,-3.31940236,-9.40267561,0.195692015,10.76306947,,,
55:41.6,1.42E+12,-3.2608192,-1.5655943,0.5547464,3.659476866,-3.316591883,-9.113458657,0.517727452,10.3855331,,,
55:41.6,1.42E+12,-2.861749,-3.386857,-0.56492525,4.469848791,-3.316020623,-9.040511371,0.674283529,10.24890901,,,
55:41.6,1.42E+12,-2.722239,-7.6706486,-5.911058,10.05932611,-3.280602434,-9.061464731,0.621687794,10.27731088,,,
55:41.6,1.42E+12,-4.4069858,-17.07604,-16.85989,24.39812609,-3.234073687,-9.29309122,0.291859383,10.5949997,,,
55:41.6,1.42E+12,-2.600542,-18.18703,-14.910793,23.66141642,-3.181022779,-9.540615271,-0.045725346,10.91158275,,,
55:41.7,1.42E+12,-1.6360977,-7.999066,-8.056247,11.47017821,-3.136229193,-9.48905821,-0.248874323,10.91381989,,,
55:41.7,1.42E+12,-4.221821,-6.3045897,-4.2882824,8.715560211,-3.077120479,-9.327305816,-0.362332264,10.7659306,,,
55:41.7,1.42E+12,-8.396339,-6.024372,-0.96040285,10.37853266,-3.157429989,-9.163057571,-0.355351881,10.67528683,,,
55:41.7,1.42E+12,-7.604786,-5.3106565,-0.75562865,9.306278377,-3.278399864,-9.138154255,-0.435029052,10.71333863,,,
55:41.7,1.42E+12,-7.272327,-7.36229,4.1814046,11.16128122,-3.372679313,-9.204454133,-0.460256191,10.79211539,,,
55:41.8,1.42E+12,-9.2609415,-13.177547,1.2217593,16.15256878,-3.482963238,-9.373049459,-0.56076147,10.9428799,,,
55:41.8,1.42E+12,-4.746629,-14.986535,0.4022136,15.72540918,-3.497092013,-9.494162908,-0.64842407,11.03983321,,,
55:41.8,1.42E+12,-1.2582834,-10.722353,2.9023147,11.17924692,-3.49191706,-9.437684439,-0.620505595,10.9891915,,,
55:41.8,1.42E+12,-1.924997,-6.6036677,5.0985475,8.562080772,-3.543263347,-9.309679208,-0.494669313,10.89997677,,,
55:41.8,1.42E+12,-2.8178902,-5.7193065,5.7086787,8.558036254,-3.573411878,-9.223739565,-0.392321942,10.86964255,,,
55:41.9,1.42E+12,-3.1379247,-7.930209,4.0083647,9.423469307,-3.572412933,-9.21587632,-0.327176797,10.8794562,,,
55:41.9,1.42E+12,-2.1290226,-11.244467,0.34338593,11.44939689,-3.525239598,-9.283773898,-0.325707403,10.92777527,,,
55:41.9,1.42E+12,-1.3754897,-12.451707,0.2282753,12.52952867,-3.46473481,-9.369701347,-0.32184299,10.99339078,,,
55:41.9,1.42E+12,-1.26472,-11.0161915,1.1115885,11.14412943,-3.426032639,-9.428782561,-0.298189116,11.04296739,,,
55:42.0,1.42E+12,-2.0236418,-8.957223,0.7445517,9.213106275,-3.427007143,-9.448431494,-0.286739456,11.06288732,,,
55:42.0,1.42E+12,-2.5126748,-7.952962,-0.16316071,8.342047749,-3.443989176,-9.442752494,-0.298702335,11.0614662,,,
55:42.0,1.42E+12,-2.9237201,-8.104746,-0.085472256,8.616400203,-3.470157208,-9.421887718,-0.311856613,11.04771127,,,
55:42.0,1.42E+12,-2.623145,-8.521929,0.46358597,8.928553944,-3.484215724,-9.398075004,-0.30633646,11.02825659,,,
55:42.0,1.42E+12,-2.107318,-8.586893,0.07694,8.842026934,-3.479990841,-9.36700082,-0.294211674,10.996789,,,
55:42.0,1.42E+12,-1.7910255,-8.707692,0.29548553,8.894885272,-3.477320882,-9.333549963,-0.24292954,10.95883124,,,
55:42.1,1.42E+12,-1.8651215,-9.051078,0.3662883,9.248505733,-3.484539545,-9.302136718,-0.163884728,10.91782549,,,
55:42.1,1.42E+12,-1.9477496,-9.1765175,0.1911525,9.382896206,-3.500806737,-9.261653555,-0.145671581,10.87989989,,,
55:42.1,1.42E+12,-1.9333795,-9.715846,-0.20627105,9.90848967,-3.525590912,-9.232665882,-0.208934923,10.84683883,,,
55:42.1,1.42E+12,-1.7163309,-9.788295,-0.3356021,9.943296211,-3.535632276,-9.187847841,-0.232799581,10.80332301,,,
55:42.1,1.42E+12,-0.86954176,-10.38241,-0.84888476,10.45328396,-3.519041267,-9.135710351,-0.201517695,10.7460081,,,
55:42.2,1.42E+12,0.18666184,-11.373948,-1.5461348,11.48007267,-3.476752676,-9.092083739,-0.193914119,10.69913537,,,
55:42.2,1.42E+12,0.33260834,-11.853251,-1.4997313,11.95237974,-3.412829479,-9.044840147,-0.167043464,10.64277181,,,
55:42.2,1.42E+12,-1.0999128,-11.486813,0.29832962,11.54320933,-3.385958828,-8.983214208,-0.091563688,10.57029974,,,
55:42.2,1.42E+12,-3.028652,-11.820768,1.287323,12.27030927,-3.402613991,-8.929152127,-0.036844825,10.52062833,,,
55:42.2,1.42E+12,-3.9116657,-11.615695,-1.9423609,12.40960373,-3.414491332,-8.920684024,-0.151066486,10.50843957,,,
55:42.3,1.42E+12,-2.4849825,-12.692855,-3.315755,13.35207614,-3.362139996,-8.966867576,-0.336344466,10.51680709,,,
55:42.3,1.42E+12,-1.5500267,-14.008919,-3.7021015,14.57250664,-3.253994473,-9.016283188,-0.484453819,10.53008264,,,
55:42.3,1.42E+12,-0.95890594,-13.990806,-3.9320233,14.56444164,-3.071973002,-9.048955045,-0.553628336,10.50374693,,,
55:42.3,1.42E+12,0.07708969,-14.285394,-0.9330098,14.31603757,-2.890904641,-9.093870841,-0.482929434,10.47795722,,,
55:42.3,1.42E+12,-1.1478131,-13.761633,4.6268783,14.56392875,-2.791957346,-9.163137004,-0.367137573,10.52982544,,,
55:42.4,1.42E+12,-3.4988241,-11.276501,4.0803647,12.49202229,-2.782059558,-9.185321494,-0.358027948,10.54949314,,,
55:42.4,1.42E+12,-5.109325,-11.161689,2.3309526,12.49487268,-2.818577497,-9.223510453,-0.345698487,10.60008672,,,
55:42.4,1.42E+12,-8.96396,-12.374167,0.60010207,15.29158953,-2.960531297,-9.330760882,-0.355895649,10.75954686,,,
55:42.4,1.42E+12,-8.4729805,-12.718302,-2.458188,15.47867218,-3.084348313,-9.473521153,-0.442870902,10.94350154,,,
55:42.4,1.42E+12,-5.6073394,-11.743829,1.2725039,13.07589541,-3.139311566,-9.613550378,-0.473532649,11.0812352,,,
55:42.5,1.42E+12,-3.2159126,-9.623637,0.89229447,10.18590557,-3.137121225,-9.731318729,-0.510227768,11.17164869,,,
55:42.5,1.42E+12,-2.9648845,-9.152866,0.943488,9.66724706,-3.127079862,-9.84632548,-0.528086548,11.26166454,,,
55:42.5,1.42E+12,-2.7048752,-8.162676,1.8220111,8.790071318,-3.11303356,-9.960015596,-0.526647705,11.34686849,,,
55:42.5,1.42E+12,-2.366878,-6.1010127,1.981729,6.837522743,-3.095996539,-10.058969,-0.515115564,11.41052546,,,
55:42.6,1.42E+12,-2.6830206,-4.8654823,2.6051824,6.136651602,-3.084204731,-10.12631365,-0.473269931,11.46108005,,,
55:42.6,1.42E+12,-3.032843,-3.8010457,2.8285182,5.625531111,-3.087696446,-10.13476648,-0.404015983,11.4846654,,,
55:42.6,1.42E+12,-3.1606774,-2.8229797,2.330354,4.836284295,-3.096644168,-10.03583447,-0.235823902,11.37807271,,,
55:42.6,1.42E+12,-3.42862,-1.8282981,1.7360898,4.255833272,-3.076677519,-9.724656059,0.14368589,10.96700551,,,
55:42.6,1.42E+12,-3.3389566,-0.88196594,1.6516653,3.828118775,-3.091747205,-9.371491487,0.481695243,10.56224433,,,
55:42.6,1.42E+12,-3.6943176,-1.4281801,0.8972342,4.061121783,-3.133751692,-9.237391774,0.664419349,10.4110391,,,
55:42.7,1.42E+12,-3.4615517,-3.4917889,-0.7247928,4.96993506,-3.118235992,-9.179987676,0.737143627,10.33459777,,,
55:42.7,1.42E+12,-4.3334885,-9.0132065,-6.043682,11.68516607,-3.035320676,-9.240984299,0.633403236,10.36126376,,,
55:42.7,1.42E+12,-7.1365595,-17.159567,-16.314425,24.72936886,-3.025765033,-9.482798799,0.31587678,10.67602071,,,
55:42.7,1.42E+12,-4.3210645,-17.053587,-16.528929,24.13921958,-2.965535186,-9.68058037,-0.10678309,10.94087659,,,
55:42.7,1.42E+12,-3.6115398,-7.9035645,-9.563911,12.92199463,-2.850241274,-9.572948074,-0.32689881,10.87494651,,,
55:42.8,1.42E+12,-5.58788,-6.4849644,-2.1844075,8.834636511,-2.867409662,-9.399446633,-0.379686996,10.73431849,,,
55:42.8,1.42E+12,-5.998027,-5.655539,-0.9063652,8.293548526,-2.964139123,-9.296042266,-0.457415157,10.67542669,,,
55:42.8,1.42E+12,-5.334906,-7.178323,0.02350113,8.94371821,-3.033729103,-9.307769925,-0.560987532,10.68321521,,,
55:42.8,1.42E+12,-7.3637867,-9.693393,5.2545233,13.25885506,-3.126502501,-9.388873731,-0.570256009,10.77915029,,,
55:42.8,1.42E+12,-8.83358,-14.448255,2.2424867,17.08253362,-3.242740364,-9.521895078,-0.606294336,10.93545772,,,
55:42.9,1.42E+12,-2.0913012,-10.712772,1.8339862,11.06799575,-3.241970539,-9.51104416,-0.575873922,10.92767403,,,
55:42.9,1.42E+12,-1.2509487,-7.3476205,4.525988,8.719917834,-3.239428886,-9.406879129,-0.4881655,10.84992687,,,
55:42.9,1.42E+12,-1.5905924,-6.1255617,7.203021,9.588326332,-3.246079343,-9.307070358,-0.363850551,10.81817578,,,
55:42.9,1.42E+12,-2.804418,-8.281528,5.974975,10.5900327,-3.262013552,-9.293280664,-0.257107218,10.84627632,,,
55:42.9,1.42E+12,-1.4019846,-12.112661,2.4134312,12.43007512,-3.239346405,-9.37817248,-0.20452371,10.92970545,,,
55:43.0,1.42E+12,0.7890093,-13.10899,-0.3275189,13.13679653,-3.163576417,-9.480299909,-0.209463437,11.02195844,,,
55:43.0,1.42E+12,-0.7643106,-10.379565,-0.24474105,10.41054458,-3.125641021,-9.518210848,-0.223919091,11.05220314,,,
55:43.0,1.42E+12,-2.773732,-8.62207,0.5510042,9.073989526,-3.139241307,-9.518928746,-0.214244311,11.05693707,,,
55:43.0,1.42E+12,-4.3834844,-7.6603203,-0.3966751,8.834749217,-3.192148631,-9.497553813,-0.228370038,11.05570981,,,
55:43.0,1.42E+12,-4.4518924,-7.8447366,-0.09939331,9.020483207,-3.244939874,-9.472934601,-0.237873744,11.05105629,,,
55:43.1,1.42E+12,-3.4200878,-7.5871224,0.08187973,8.322747813,-3.274987592,-9.440497966,-0.240103801,11.02942061,,,
55:43.1,1.42E+12,-1.968257,-7.4500074,0.29039612,7.711094331,-3.275699378,-9.394256362,-0.229967736,10.9845758,,,
55:43.1,1.42E+12,-1.4256353,-8.141121,0.34578094,8.272233774,-3.269766815,-9.360640566,-0.21606196,10.95047249,,,
55:43.1,1.42E+12,-1.4156063,-9.116792,0.09699829,9.226551156,-3.280910989,-9.334811627,-0.196758224,10.92543712,,,
55:43.1,1.42E+12,-1.8787432,-9.6405525,-0.47960266,9.833613132,-3.323062112,-9.299436209,-0.174992262,10.89183591,,,
55:43.2,1.42E+12,-2.6463468,-9.723181,-0.56627244,10.09277289,-3.383857115,-9.255965393,-0.155942081,10.85388475,,,
55:43.2,1.42E+12,-2.7427464,-9.964029,-0.6044431,10.35228879,-3.417384332,-9.224888168,-0.174366014,10.82958025,,,
55:43.2,1.42E+12,-1.6643889,-10.582543,-1.8022522,10.86317264,-3.389542228,-9.19961827,-0.23741857,10.80086317,,,
55:43.2,1.42E+12,-0.6915619,-11.837384,-1.9962487,12.02443041,-3.323825823,-9.204142536,-0.238518321,10.79300249,,,
55:43.2,1.42E+12,-1.314716,-12.224628,0.3544629,12.30022975,-3.299942834,-9.194586882,-0.163615914,10.77153624,,,
55:43.3,1.42E+12,-1.9963984,-11.8300495,0.73691756,12.01993033,-3.30905246,-9.150120158,-0.073023689,10.71944285,,,
55:43.3,1.42E+12,-1.8917661,-12.577445,-1.9658619,12.86994618,-3.328090423,-9.121276056,-0.032897946,10.68486131,,,
55:43.3,1.42E+12,-1.0907817,-13.227543,-2.408641,13.48922718,-3.351924533,-9.09968726,-0.063012868,10.66798763,,,
55:43.3,1.42E+12,-1.5459851,-13.603262,-2.5237517,13.92149883,-3.360050492,-9.096455199,-0.208944093,10.65487681,,,
55:43.3,1.42E+12,-2.3980134,-14.237642,-4.252357,15.05136067,-3.337584967,-9.156886648,-0.378999638,10.70710821,,,
55:43.4,1.42E+12,-1.4922469,-13.766722,-1.6706758,13.94778094,-3.263767047,-9.210050587,-0.460665523,10.7367594,,,
55:43.4,1.42E+12,-1.714834,-13.352683,4.4014473,14.16359902,-3.1158257,-9.230020301,-0.383087049,10.71373918,,,
55:43.4,1.42E+12,-3.3813186,-11.017389,6.303392,13.13578801,-3.011914233,-9.195307791,-0.204279294,10.66592522,,,
55:43.4,1.42E+12,-5.623506,-10.925331,3.3162038,12.72728898,-3.012244163,-9.17860375,-0.162571133,10.6588108,,,
55:43.4,1.42E+12,-7.940687,-12.648996,0.55833894,14.9453455,-3.108668131,-9.24034577,-0.169386552,10.75594223,,,
55:43.5,1.42E+12,-9.290131,-13.726306,-3.2689023,16.89389631,-3.237754794,-9.33368128,-0.255353701,10.90342487,,,
55:43.5,1.42E+12,-7.110214,-11.263627,-3.8110747,13.85455617,-3.327659667,-9.396965995,-0.370314636,11.0067817,,,
55:43.5,1.42E+12,-4.466412,-9.393716,4.599635,11.3730989,-3.3705073,-9.464164021,-0.316887983,11.09934448,,,
55:43.6,1.42E+12,-3.1260993,-9.425899,2.044299,10.13899537,-3.379549722,-9.55723375,-0.328334583,11.18102496,,,
55:43.6,1.42E+12,-2.4492068,-7.770491,0.95636123,8.203278072,-3.36763878,-9.638242838,-0.366541868,11.23363204,,,
55:43.6,1.42E+12,-2.0898042,-5.9993744,1.9287392,6.639262737,-3.345784224,-9.703067219,-0.374738088,11.27042752,,,
55:43.6,1.42E+12,-2.424508,-4.5951443,2.7327173,5.870377673,-3.325292143,-9.759533468,-0.354398751,11.30337741,,,
55:43.6,1.42E+12,-2.9888346,-3.4328115,2.857408,5.37420762,-3.318146796,-9.811591541,-0.329791758,11.33493024,,,
55:43.6,1.42E+12,-3.304079,-2.678979,2.4975562,4.93271259,-3.310182743,-9.837118049,-0.297132125,11.35271781,,,
55:43.6,1.42E+12,-3.264711,-2.4167244,2.1128564,4.578543099,-3.306165586,-9.815177957,-0.239220917,11.34473022,,,
55:43.7,1.42E+12,-3.282973,-1.1975098,1.5368541,3.817572784,-3.284726494,-9.655673943,-0.084516098,11.18416709,,,
55:43.7,1.42E+12,-3.54418,-1.0235715,0.67734146,3.750693528,-3.211412627,-9.326367912,0.262254646,10.75603086,,,
55:43.7,1.42E+12,-3.2750394,-2.9591963,-0.16016693,4.416829096,-3.190065176,-9.038727286,0.596311014,10.35353309,,,
55:43.7,1.42E+12,-3.8245468,-7.837402,-5.2862573,10.19786961,-3.194412257,-9.037377031,0.68361007,10.29793871,,,
55:43.7,1.42E+12,-6.675668,-16.743132,-16.024477,24.11806119,-3.216612012,-9.24672739,0.401159672,10.60984533,,,
55:43.8,1.42E+12,-4.737049,-18.472786,-16.087048,24.94948034,-3.190877767,-9.508303859,0.091349819,10.94976231,,,
55:43.8,1.42E+12,-3.3337176,-8.009844,-10.254276,13.4321052,-3.150037188,-9.525273676,-0.118400735,11.04136204,,,
55:43.8,1.42E+12,-5.338948,-5.63593,-3.4600549,8.49941484,-3.108713949,-9.442468308,-0.29624927,10.94423061,,,
55:43.8,1.42E+12,-5.965395,-5.6015015,-2.893483,8.679573747,-3.050179561,-9.261922318,-0.401064978,10.77274163,,,
55:43.9,1.42E+12,-5.9218354,-7.3030133,3.0548475,9.886062463,-3.128353729,-9.192335406,-0.376149441,10.74862055,,,
55:43.9,1.42E+12,-8.203241,-10.535542,4.436624,14.07033904,-3.270237245,-9.257395029,-0.377973196,10.85781281,,,
55:43.9,1.42E+12,-8.811875,-14.569353,1.5501764,17.09731659,-3.417610359,-9.4297173,-0.493337372,11.01105751,,,
55:43.9,1.42E+12,-3.0274544,-9.455537,2.4989035,10.23802612,-3.422162122,-9.453676667,-0.564277607,11.00387371,,,
55:44.0,1.42E+12,-2.2989194,-6.7541046,5.82828,9.212589599,-3.440466914,-9.344318373,-0.494586815,10.93821074,,,
55:44.0,1.42E+12,-2.4712112,-6.8820887,7.8963795,10.76210197,-3.507002027,-9.217238755,-0.326752153,10.88974758,,,
55:44.0,1.42E+12,-1.705254,-9.340426,7.241192,11.94095099,-3.526204953,-9.196031837,-0.17397801,10.92098037,,,
55:44.0,1.42E+12,0.4022136,-13.249547,0.22273682,13.25752176,-3.461389737,-9.290470143,-0.180677344,11.00635857,,,
55:44.0,1.42E+12,0.8879535,-12.021651,-1.1638298,12.11045226,-3.353809371,-9.379476892,-0.196333562,11.07320966,,,
55:44.0,1.42E+12,-1.567241,-9.837243,0.41837996,9.97008706,-3.294938935,-9.420140288,-0.185766761,11.09258933,,,
55:44.1,1.42E+12,-3.3103662,-8.520282,0.29518616,9.145537962,-3.292699718,-9.439184361,-0.181413568,11.10938096,,,
55:44.1,1.42E+12,-3.9462438,-8.32853,0.1565744,9.217470783,-3.333066796,-9.457113394,-0.184144624,11.14012334,,,
55:44.1,1.42E+12,-4.3159747,-8.194709,-0.8587642,9.301525098,-3.392053314,-9.458207027,-0.208727178,11.16112929,,,
55:44.1,1.42E+12,-3.7187169,-7.9171863,-1.3781841,8.854946962,-3.439055571,-9.433725278,-0.238832941,11.15354553,,,
55:44.1,1.42E+12,-2.7818153,-7.82872,-0.4340973,8.319602975,-3.457485614,-9.396749104,-0.23790426,11.12264736,,,
55:44.1,1.42E+12,-2.0773802,-8.310418,0.69470537,8.594252229,-3.445874051,-9.367917206,-0.212170019,11.09206531,,,
55:44.2,1.42E+12,-1.7842896,-8.713829,1.7774038,9.070483421,-3.426313708,-9.34240292,-0.163560899,11.06590601,,,
55:44.2,1.42E+12,-1.4452446,-8.980575,1.7339941,9.259924126,-3.421841376,-9.309709696,-0.091392607,11.03318665,,,
55:44.2,1.42E+12,-1.1768527,-9.754765,0.6399193,9.846315006,-3.431745269,-9.267207267,-0.03759326,10.98873532,,,
55:44.2,1.42E+12,-0.8081694,-10.474618,-0.5204677,10.51863331,-3.421407584,-9.231492778,-0.055448986,10.95237621,,,
55:44.2,1.42E+12,-0.37766466,-10.725646,-2.3888824,10.99494756,-3.388372201,-9.208953931,-0.119240822,10.93145819,,,
55:44.3,1.42E+12,-1.2240046,-11.446097,-3.3819172,11.9978618,-3.374744416,-9.185865196,-0.14813991,10.91366055,,,
55:44.3,1.42E+12,-2.615062,-11.52169,-1.3736933,11.89432314,-3.405852177,-9.151051869,-0.127018528,10.88111149,,,
55:44.3,1.42E+12,-2.9072542,-11.495345,0.89109695,11.89071644,-3.433633179,-9.108033155,-0.05732774,10.83966695,,,
55:44.3,1.42E+12,-2.404899,-12.700489,-0.8044272,12.95117999,-3.433773701,-9.076662686,0.013038175,10.79680612,,,
55:44.3,1.42E+12,-2.194287,-13.359119,-2.610272,13.78747532,-3.44810105,-9.068344257,-0.006137258,10.79353458,,,
55:44.4,1.42E+12,-2.4795938,-15.123501,-3.6983593,15.76535853,-3.463708393,-9.1044834,-0.171439433,10.82622355,,,
55:44.4,1.42E+12,-1.945654,-14.913637,-4.2472677,15.62822514,-3.434409116,-9.183998665,-0.386759019,10.87708961,,,
55:44.4,1.42E+12,-1.0196795,-13.797857,-0.3598517,13.84016247,-3.340453473,-9.242621645,-0.46178056,10.89980132,,,
55:44.4,1.42E+12,-1.1725117,-12.700639,4.849166,13.64534447,-3.202327446,-9.243675584,-0.374212661,10.87327068,,,
55:44.4,1.42E+12,-2.625091,-10.418634,4.51057,11.65265115,-3.066306222,-9.176172073,-0.21544792,10.7663065,,,
55:44.5,1.42E+12,-5.511838,-11.633957,1.2025992,12.92963876,-3.033686303,-9.183729829,-0.113128044,10.74743063,,,
55:44.5,1.42E+12,-9.521251,-13.425731,-1.5102096,16.5283153,-3.136846283,-9.266015849,-0.237818751,10.85263913,,,
55:44.5,1.42E+12,-8.245604,-13.140724,-3.1190639,15.823943,-3.241325971,-9.341828604,-0.343193504,10.96865847,,,
55:44.5,1.42E+12,-5.5125866,-12.283307,2.938689,13.78057092,-3.303843926,-9.43392689,-0.302737835,11.08248077,,,
55:44.5,1.42E+12,-3.309468,-10.470277,2.5676107,11.27705208,-3.328735024,-9.5251698,-0.289699641,11.17712953,,,
55:44.6,1.42E+12,-3.061284,-8.167017,0.5852829,8.741520605,-3.341730452,-9.598065161,-0.333524833,11.23572429,,,
55:44.6,1.42E+12,-2.5327332,-6.652915,1.4111155,7.257221398,-3.33242226,-9.663781559,-0.363041006,11.27415314,,,
55:44.6,1.42E+12,-1.9281404,-5.0225058,2.3179297,5.857993514,-3.304341881,-9.711608637,-0.366706853,11.29303642,,,
55:44.6,1.42E+12,-2.7180479,-3.4108071,3.1748977,5.394568089,-3.293185491,-9.731896039,-0.345032541,11.30968999,,,
55:44.6,1.42E+12,-2.9678783,-2.530937,3.1611264,5.020623848,-3.286754987,-9.759108839,-0.311884127,11.33424206,,,
55:44.7,1.42E+12,-3.0999038,-2.0237916,2.5840764,4.514707837,-3.277688126,-9.779521494,-0.272971169,11.34983419,,,
55:44.7,1.42E+12,-3.103646,-0.8696915,2.0190015,3.803333913,-3.274190301,-9.736878539,-0.228498344,11.33731388,,,
55:44.7,1.42E+12,-3.195405,-0.16525635,0.9193881,3.329143622,-3.261350673,-9.580304138,-0.101852519,11.19713579,,,
55:44.7,1.42E+12,-3.126698,-1.5917898,-0.02679428,3.508668278,-3.188922713,-9.271093072,0.224630802,10.77653594,,,
55:44.8,1.42E+12,-3.340603,-5.698799,-3.355572,7.409170122,-3.160423816,-9.01039946,0.484456842,10.41857042,,,
55:44.8,1.42E+12,-6.51116,-15.38815,-14.602434,22.19057105,-3.225269579,-9.160977134,0.395718924,10.59731463,,,
55:44.8,1.42E+12,-5.5688696,-19.010767,-17.549805,26.46539677,-3.229961856,-9.433932991,0.108173004,10.96396732,,,
55:44.8,1.42E+12,-4.2914257,-9.856853,-10.302176,14.88988636,-3.195799218,-9.520776899,-0.043024813,11.09070839,,,
55:44.9,1.42E+12,-5.8454943,-5.319638,-2.9635372,8.441025104,-3.194241236,-9.480299852,-0.16584899,11.06121783,,,
55:44.9,1.42E+12,-6.586603,-3.699856,-2.772684,8.047362926,-3.161248624,-9.340796056,-0.312977725,10.93829995,,,
55:44.9,1.42E+12,-6.148464,-5.8209453,3.2395632,9.065416895,-3.106893297,-9.162257123,-0.278500443,10.77438363,,,
55:44.9,1.42E+12,-8.173154,-11.753109,3.5182836,14.74158529,-3.211907575,-9.209146348,-0.257696768,10.866293,,,
55:44.9,1.42E+12,-9.129814,-15.56583,2.298171,18.19148584,-3.351313587,-9.388977479,-0.329739809,11.04953578,,,
55:44.9,1.42E+12,-2.6312284,-9.331445,2.8416908,10.10318936,-3.354579244,-9.438964342,-0.432896721,11.03608859,,,
55:44.9,1.42E+12,-1.9857706,-6.2530966,5.808072,8.762317178,-3.360304073,-9.375957619,-0.462144068,10.97121851,,,
55:45.0,1.42E+12,-2.3079007,-6.3704524,7.850724,10.37029106,-3.415612528,-9.235567934,-0.30647086,10.91229544,,,
55:45.0,1.42E+12,-1.9743942,-9.692494,7.7968364,12.59497242,-3.474027787,-9.188034117,-0.123600121,10.9221836,,,
55:45.0,1.42E+12,-0.18935624,-14.120586,2.7569668,14.38845616,-3.44590769,-9.275449281,-0.075873859,11.0123544,,,
55:45.0,1.42E+12,1.0645862,-12.773088,-2.4590864,13.05113891,-3.356622947,-9.36224124,-0.132083503,11.09206054,,,
55:45.0,1.42E+12,-1.1247611,-10.09845,-0.44382706,10.17058319,-3.299041667,-9.398362056,-0.144336594,11.11151182,,,
55:45.1,1.42E+12,-2.9987142,-8.3869095,0.72898406,8.936663559,-3.2721588,-9.402284515,-0.111933569,11.10406566,,,
55:45.1,1.42E+12,-4.393963,-7.67005,-0.3252736,8.845472331,-3.285939333,-9.397240917,-0.090445599,11.1038723,,,
55:45.1,1.42E+12,-4.8473697,-7.7483373,-1.0223739,9.19668268,-3.328093504,-9.395600454,-0.102451244,11.12177189,,,
55:45.1,1.42E+12,-3.276237,-7.785909,-0.7566765,8.480959094,-3.352559969,-9.384896189,-0.132071282,11.11945978,,,
55:45.2,1.42E+12,-1.5103592,-7.6660085,-0.105680235,7.814092369,-3.346969553,-9.363512097,-0.170501569,11.09381915,,,
55:45.2,1.42E+12,-0.9888437,-8.0740595,0.520318,8.151010949,-3.337655249,-9.345011781,-0.195270469,11.07118827,,,
55:45.2,1.42E+12,-1.5605049,-8.901689,0.47406417,9.049860741,-3.345484886,-9.327602066,-0.198655267,11.0549341,,,
55:45.2,1.42E+12,-2.2180874,-9.25256,0.04790039,9.51483435,-3.374258722,-9.302662107,-0.187055918,11.03444841,,,
55:45.2,1.42E+12,-2.7175987,-9.620194,-0.8741821,10.03482285,-3.422012478,-9.280101862,-0.156143667,11.01485402,,,
55:45.2,1.42E+12,-2.5078847,-10.224937,-1.3443544,10.61348723,-3.448214113,-9.25518023,-0.114560753,10.98660148,,,
55:45.3,1.42E+12,-1.4028827,-11.182796,-2.80831,11.61505968,-3.42347576,-9.248264026,-0.143838645,10.98090223,,,
55:45.3,1.42E+12,-0.7364685,-12.067006,-2.5156686,12.34842533,-3.379174011,-9.259930577,-0.213364473,10.99024323,,,
55:45.3,1.42E+12,-1.2082874,-11.557616,0.7656578,11.64580087,-3.354753366,-9.236606638,-0.181321922,10.96360283,,,
55:45.3,1.42E+12,-1.8809885,-11.363769,2.0616627,11.70144507,-3.348359519,-9.195885209,-0.085976315,10.92103079,,,
55:45.3,1.42E+12,-1.5923886,-12.804672,-1.4877563,12.98879307,-3.330253291,-9.148562168,-0.040861968,10.86436619,,,
55:45.4,1.42E+12,-0.9017249,-13.853991,-3.5112484,14.32044133,-3.308948615,-9.12693674,-0.025841166,10.83767672,,,
55:45.4,1.42E+12,-1.567241,-14.941628,-1.8203645,15.13348005,-3.32012334,-9.150279005,-0.05564755,10.86407096,,,
55:45.4,1.42E+12,-1.7696201,-15.548167,-2.2839506,15.81434421,-3.332309225,-9.208391821,-0.201221358,10.90833626,,,
55:45.4,1.42E+12,-0.93061477,-14.313984,-1.3278886,14.40553609,-3.297728078,-9.28788876,-0.320373575,10.96451758,,,
55:45.4,1.42E+12,-2.6137147,-11.677815,2.233655,12.17341704,-3.238582704,-9.288783821,-0.299331619,10.94908449,,,
55:45.5,1.42E+12,-4.127367,-9.227262,5.170548,11.35394597,-3.128503439,-9.203100781,-0.162989628,10.84348511,,,
55:45.5,1.42E+12,-5.763914,-10.966794,3.237318,12.8052139,-3.077856704,-9.158734862,-0.033267548,10.7818784,,,
55:45.5,1.42E+12,-7.8944335,-12.76725,0.07948471,15.01103163,-3.126465825,-9.16861125,-0.091618656,10.80698984,,,
55:45.5,1.42E+12,-7.034771,-13.5715275,-3.3028817,15.63916204,-3.202492417,-9.231902077,-0.211424623,10.89601249,,,
55:45.5,1.42E+12,-4.6493316,-11.341465,-2.1624033,12.44673052,-3.234901551,-9.29668673,-0.267499852,10.97162902,,,
55:45.6,1.42E+12,-1.7851877,-11.6700325,6.462062,13.45863288,-3.219645521,-9.399076883,-0.164419311,11.09818844,,,
55:45.6,1.42E+12,-2.2074594,-9.662257,1.9142194,10.09437087,-3.225345908,-9.493765683,-0.172658297,11.18464512,,,
55:45.6,1.42E+12,-2.2990692,-7.644304,1.7501606,8.172157913,-3.216795323,-9.580163579,-0.201734564,11.24133063,,,
55:45.6,1.42E+12,-2.1456382,-6.3682075,3.0371842,7.374436786,-3.200014912,-9.658475221,-0.204263997,11.28936763,,,
55:45.7,1.42E+12,-2.7017317,-4.9626303,2.717,6.269700366,-3.191888951,-9.718451521,-0.20155127,11.3251838,,,
55:45.7,1.42E+12,-3.6051033,-3.974984,2.199077,5.799414389,-3.202122774,-9.781824838,-0.19787626,11.36592014,,,
55:45.7,1.42E+12,-3.7766464,-3.1392717,2.2682333,5.409525593,-3.213984843,-9.842519029,-0.170348807,11.40837691,,,
55:45.7,1.42E+12,-3.6317477,-2.6375153,2.068249,4.942037256,-3.22429198,-9.863860365,-0.127592822,11.43762934,,,
55:45.7,1.42E+12,-3.517685,-1.7747095,1.40902,4.184380352,-3.227905898,-9.783776906,-0.03035625,11.3718173,,,
55:45.7,1.42E+12,-3.7359312,-1.7085471,0.5228627,4.141219691,-3.171268576,-9.504601337,0.278323274,11.00346319,,,
55:45.8,1.42E+12,-3.7256026,-3.4009278,-1.1713142,5.178648626,-3.133650882,-9.18603319,0.612578188,10.56903976,,,
55:45.9,1.42E+12,-4.176465,-7.008276,-5.423073,9.796352033,-3.131304745,-9.127898965,0.712151719,10.46509008,,,
55:45.9,1.42E+12,-6.195317,-15.022311,-13.417349,21.07313538,-3.138443984,-9.3259127,0.498808621,10.72288825,,,
55:45.9,1.42E+12,-3.1379247,-18.961071,-15.683336,24.80596325,-3.068062794,-9.637366067,0.235325927,11.0649005,,,
55:45.9,1.42E+12,-2.9876373,-11.974648,-9.834399,15.78079767,-3.003556127,-9.762951837,-0.031489628,11.20194909,,,
55:45.9,1.42E+12,-3.639382,-7.9080553,-3.6824923,9.452152639,-2.911030168,-9.684481353,-0.178444238,11.09400149,,,
55:45.9,1.42E+12,-6.3378205,-6.89092,-2.8657906,9.791093039,-2.854050708,-9.507442373,-0.283831209,10.9225649,,,
55:45.9,1.42E+12,-7.3976164,-11.370206,-1.7486637,13.67713923,-2.951323933,-9.549049741,-0.377511914,10.99550265,,,
55:45.9,1.42E+12,-7.278764,-10.356364,7.547455,14.73766459,-3.059344206,-9.632789892,-0.342014301,11.11744852,,,
55:45.9,1.42E+12,-6.3493466,-5.945486,5.728288,10.41519512,-3.141822694,-9.624117108,-0.385329322,11.11836492,,,
55:46.0,1.42E+12,-4.2390347,-4.236041,3.6401303,7.01170501,-3.188039847,-9.512760924,-0.470160058,11.00442069,,,
55:46.0,1.42E+12,-3.864813,-7.1229377,5.153783,9.603879436,-3.263049169,-9.369951776,-0.421245442,10.90677627,,,
55:46.0,1.42E+12,-1.6093035,-10.394534,6.267317,12.24399678,-3.317618346,-9.321409857,-0.243155577,10.89030398,,,
55:46.0,1.42E+12,-0.028740235,-12.925322,4.252956,13.60707204,-3.295250574,-9.379101122,-0.147302861,10.96043641,,,
55:46.0,1.42E+12,0.91100556,-13.5836525,-0.8690927,13.64187921,-3.215460374,-9.485157102,-0.179916673,11.05646122,,,
55:46.1,1.42E+12,-0.029937744,-10.921289,1.0436298,10.97108075,-3.126398634,-9.551508918,-0.151979869,11.09984098,,,
55:46.1,1.42E+12,-1.7441729,-8.787027,1.3593233,9.061001183,-3.063068088,-9.572706667,-0.103373803,11.09707197,,,
55:46.1,1.42E+12,-2.2171893,-8.326585,0.96324694,8.670397385,-3.041454869,-9.583740871,-0.068273325,11.10093806,,,
55:46.2,1.42E+12,-2.872377,-8.746911,-0.6129753,9.226848887,-3.069251151,-9.605800106,-0.078626286,11.12976982,,,
55:46.2,1.42E+12,-2.8562105,-8.572224,-0.7813751,9.06926181,-3.107360677,-9.615966729,-0.105191451,11.14850964,,,
55:46.2,1.42E+12,-2.5454566,-8.486452,-0.73302567,8.890249911,-3.127461732,-9.607492504,-0.129825937,11.14525227,,,
55:46.2,1.42E+12,-2.0637584,-7.96823,-0.37736526,8.239793238,-3.124312161,-9.581281688,-0.138504828,11.11923102,,,
55:46.2,1.42E+12,-2.191892,-7.8550653,0.511636,8.171181849,-3.113583453,-9.545258653,-0.110222826,11.08119753,,,
55:46.2,1.42E+12,-2.8214827,-8.38661,1.153651,8.923390754,-3.119983412,-9.507741776,-0.059243124,11.04670577,,,
55:46.2,1.42E+12,-3.3418007,-9.293574,1.1567944,9.94365742,-3.159553167,-9.469186224,0.021677374,11.01259552,,,
55:46.3,1.42E+12,-3.2927027,-9.8221245,0.40281236,10.36717312,-3.211721212,-9.423372316,0.08123821,10.9721618,,,
55:46.3,1.42E+12,-2.416425,-10.355316,-1.7399817,10.7749346,-3.236377081,-9.398835582,0.03010271,10.95438902,,,
55:46.3,1.42E+12,-0.7206015,-11.366913,-4.156706,12.12452813,-3.212695714,-9.398899745,-0.096802774,10.96302337,,,
55:46.3,1.42E+12,-0.23965164,-11.911031,-1.905238,12.06482591,-3.185088837,-9.380662173,-0.105322809,10.9441669,,,
55:46.3,1.42E+12,-1.0690769,-11.751313,1.5525714,11.90154446,-3.188504184,-9.337750378,-0.001979547,10.89480165,,,
55:46.4,1.42E+12,-1.8996996,-12.586876,-0.5734575,12.74233729,-3.195289054,-9.289694214,0.023467534,10.84600282,,,
55:46.4,1.42E+12,-1.4817686,-13.279485,-4.1580534,13.99391897,-3.189414533,-9.243394582,-0.014779462,10.80885129,,,
55:46.4,1.42E+12,-1.3421091,-14.571598,-3.06323,14.95045495,-3.197812377,-9.24865201,-0.050194592,10.81997208,,,
55:46.4,1.42E+12,-1.7657281,-15.675702,-2.6622138,15.99790021,-3.180506528,-9.330241541,-0.150110282,10.89802276,,,
55:46.5,1.42E+12,-0.7921527,-14.773528,-1.592688,14.88023153,-3.11244093,-9.443430643,-0.288135507,10.96998777,,,
55:46.5,1.42E+12,-1.9242485,-13.514048,4.667145,14.42617302,-3.034080409,-9.495415418,-0.258955364,11.00306857,,,
55:46.5,1.42E+12,-4.4869194,-10.14665,5.0222063,12.17823912,-2.964539305,-9.441933786,-0.158083494,10.94525647,,,
55:46.5,1.42E+12,-6.903494,-11.0123,1.9955003,13.14956281,-2.961860183,-9.389704653,-0.04995325,10.89444833,,,
55:46.5,1.42E+12,-10.113568,-12.95002,-1.2449611,16.47838596,-3.073375211,-9.422532306,-0.031229939,10.97672701,,,
55:46.5,1.42E+12,-8.454868,-12.66651,-3.9077737,15.72246685,-3.209491136,-9.442868582,-0.242859239,11.0229277,,,
55:46.6,1.42E+12,-5.419929,-11.082205,-0.8801697,12.36792613,-3.27505174,-9.471847112,-0.299887588,11.06932679,,,
55:46.6,1.42E+12,-2.6188042,-10.640324,6.222261,12.60123654,-3.281576944,-9.532990378,-0.208620233,11.15971615,,,
55:46.6,1.42E+12,-2.2194347,-9.899364,0.9662407,10.19102149,-3.283082995,-9.605054796,-0.250884386,11.21719747,,,
55:46.6,1.42E+12,-1.9267932,-8.287067,1.8492545,8.706764824,-3.267267924,-9.672900443,-0.268593478,11.26693348,,,
55:46.6,1.42E+12,-1.9835253,-6.3358746,2.7388544,7.181852337,-3.234174495,-9.721081884,-0.257577613,11.2951465,,,
55:46.7,1.42E+12,-2.4508533,-4.6701384,2.9642859,6.050112848,-3.207117493,-9.752324061,-0.243372458,11.30821971,,,
55:46.7,1.42E+12,-3.070415,-3.127147,3.0714629,5.351670859,-3.195661724,-9.762316545,-0.222898705,11.31657958,,,
55:46.7,1.42E+12,-2.9991632,-2.5750952,2.7966344,4.842236999,-3.185079646,-9.778650947,-0.194580043,11.33000522,,,
55:46.7,1.42E+12,-3.1232553,-1.8519489,2.1311183,4.210237951,-3.172576056,-9.781577514,-0.161758501,11.33141376,,,
55:46.7,1.42E+12,-3.3808694,-0.9517209,1.3762381,3.772278076,-3.165540685,-9.7315937,-0.109767637,11.30271232,,,
55:46.8,1.42E+12,-3.6091447,-1.201701,0.470771,3.832967009,-3.15396272,-9.613092169,0.010514893,11.18101058,,,
55:46.8,1.42E+12,-3.3587155,-3.355123,-0.3993695,4.764170038,-3.096072893,-9.374986292,0.276187944,10.84817456,,,
55:46.8,1.42E+12,-4.2098455,-8.269703,-6.310577,11.22203943,-3.117948828,-9.156795108,0.46746874,10.57095162,,,
55:46.8,1.42E+12,-6.1393332,-17.23965,-16.859291,24.88237604,-3.182269152,-9.264244129,0.324103597,10.75669812,,,
55:46.8,1.42E+12,-3.044519,-16.990417,-15.150146,22.96672135,-3.170129091,-9.449598449,0.090069848,11.03250564,,,
55:46.9,1.42E+12,-3.0148804,-7.292086,-8.104446,11.31132472,-3.102313987,-9.45778551,-0.016841486,11.06353078,,,
55:46.9,1.42E+12,-5.7425084,-5.8368125,-3.3817675,8.858957857,-3.068536273,-9.344859112,-0.050170135,10.96520055,,,
55:46.9,1.42E+12,-7.2437367,-4.059408,-1.4765296,8.433899119,-3.06782143,-9.216349806,-0.234333086,10.83655227,,,
55:46.9,1.42E+12,-6.238427,-4.69349,1.6530125,7.979929206,-3.065557764,-9.190798867,-0.317501974,10.78685297,,,
55:46.9,1.42E+12,-8.4045725,-10.147847,4.476591,13.91601612,-3.15056874,-9.311447969,-0.300431348,10.92775728,,,
55:47.0,1.42E+12,-10.092912,-18.050364,-2.3017635,20.80818657,-3.277672801,-9.534456669,-0.452585358,11.15641661,,,
55:47.0,1.42E+12,-0.69994444,-11.861184,2.9600945,12.24498949,-3.259114453,-9.564388302,-0.520079694,11.15643686,,,
55:47.0,1.42E+12,-0.98824495,-6.109096,6.023624,8.636071335,-3.278696182,-9.425281649,-0.483943613,11.05498787,,,
55:47.0,1.42E+12,-2.2602997,-4.792434,7.8192897,9.445510563,-3.343416697,-9.245869027,-0.306629686,10.96934769,,,
55:47.0,1.42E+12,-2.6195526,-7.3883357,7.215745,10.65441393,-3.39626598,-9.173767939,-0.180668152,10.96288511,,,
55:47.1,1.42E+12,-0.8107141,-13.216316,2.8797116,13.55068282,-3.377215801,-9.264161592,-0.149639819,11.05451126,,,
55:47.1,1.42E+12,1.169967,-13.834531,-1.7778529,13.99727944,-3.308090162,-9.376568653,-0.205580632,11.16322314,,,
55:47.2,1.42E+12,-0.41837996,-10.900332,-0.3264711,10.91324255,-3.25800859,-9.42051602,-0.199733608,11.19763934,,,
55:47.2,1.42E+12,-2.855462,-8.611443,0.37826338,9.080401806,-3.257993314,-9.421316408,-0.176067516,11.19786668,,,
55:47.2,1.42E+12,-4.495601,-7.325317,-0.7244934,8.625287716,-3.297792179,-9.397619776,-0.175893388,11.19245929,,,
55:47.2,1.42E+12,-4.660558,-7.373367,-0.48544052,8.736303239,-3.35078809,-9.385479714,-0.178099006,11.20259215,,,
55:47.2,1.42E+12,-3.2006443,-7.580985,-0.017363891,8.228958562,-3.371374871,-9.379886239,-0.188894922,11.20377127,,,
55:47.2,1.42E+12,-1.4482384,-7.9920306,0.15552658,8.123677498,-3.343349477,-9.371833598,-0.209264808,11.18745059,,,
55:47.2,1.42E+12,-0.7710466,-8.528215,0.30701157,8.568501622,-3.290885108,-9.356214027,-0.226607315,11.15938618,,,
55:47.2,1.42E+12,-1.1244617,-9.386531,0.22647904,9.456356121,-3.246635292,-9.347324363,-0.230205954,11.14079808,,,
55:47.3,1.42E+12,-1.7110918,-9.855057,-0.009131012,10.00250304,-3.232240737,-9.337114996,-0.19488247,11.12503417,,,
55:47.3,1.42E+12,-2.4828868,-9.816886,-0.2866539,10.1300616,-3.268205743,-9.305481792,-0.115901815,11.08433077,,,
55:47.3,1.42E+12,-2.396217,-9.849368,-0.782872,10.16684781,-3.312217281,-9.263407037,-0.092996387,11.04559653,,,
55:47.3,1.42E+12,-1.3230987,-10.683284,-2.4177723,11.03307618,-3.317401399,-9.241610527,-0.174023809,11.02787268,,,
55:47.3,1.42E+12,-0.068258055,-11.833043,-2.597249,12.11491924,-3.280025041,-9.22622618,-0.215325677,11.01506823,,,
55:47.4,1.42E+12,-1.0214758,-11.578722,0.068407744,11.62389331,-3.27063131,-9.191516731,-0.129071368,10.96670036,,,
55:47.4,1.42E+12,-2.4828868,-11.539204,0.72778654,11.82571897,-3.293912488,-9.129631139,-0.051703683,10.90293024,,,
55:47.4,1.42E+12,-1.9511925,-12.551399,-1.4510825,12.78477256,-3.297697476,-9.065869853,-0.026986718,10.83735621,,,
55:47.5,1.42E+12,-0.7114705,-13.812826,-3.3932936,14.2413059,-3.2960509,-9.04626369,-0.063733771,10.82431691,,,
55:47.5,1.42E+12,-1.3386662,-15.077995,-2.3650818,15.32095207,-3.284100241,-9.078180976,-0.207248603,10.84257771,,,
55:47.5,1.42E+12,-1.3940511,-15.015276,-2.5146208,15.2880741,-3.22098048,-9.17754069,-0.361061401,10.90604373,,,
55:47.5,1.42E+12,-0.8864566,-14.147829,-0.13307327,14.17619763,-3.098183798,-9.241531078,-0.404501678,10.92699546,,,
55:47.5,1.42E+12,-1.8835331,-11.803255,4.7138476,12.84853629,-2.930223902,-9.21812771,-0.282893338,10.85291689,,,
55:47.5,1.42E+12,-3.9835162,-10.172696,4.191883,11.70145411,-2.838971825,-9.167233547,-0.117594221,10.77085541,,,
55:47.5,1.42E+12,-6.0613456,-11.687396,1.3052857,13.230227,-2.852061959,-9.179584384,-0.072993091,10.78845339,,,
55:47.6,1.42E+12,-8.8581295,-13.429323,-1.6230748,16.1693397,-2.979395129,-9.236502731,-0.233101984,10.86127182,,,
55:47.6,1.42E+12,-6.6041164,-13.033397,-3.1835797,14.95389483,-3.068878429,-9.300462588,-0.317792197,10.95847331,,,
55:47.6,1.42E+12,-3.6706667,-12.230467,2.8997698,13.09453252,-3.104467684,-9.380940139,-0.296353109,11.04801959,,,
55:47.6,1.42E+12,-1.5985259,-11.178754,3.9770796,11.97234264,-3.096610553,-9.479774412,-0.271083207,11.1457847,,,
55:47.6,1.42E+12,-1.73115,-8.813672,1.0951227,9.048590397,-3.081922731,-9.564336322,-0.309229395,11.20697812,,,
55:47.7,1.42E+12,-1.9438577,-7.324718,2.257755,7.907435373,-3.058931765,-9.650001037,-0.325835678,11.25913658,,,
55:47.7,1.42E+12,-2.2544618,-5.649552,2.7881021,6.691303993,-3.043733778,-9.712745053,-0.326009807,11.29687264,,,
55:47.7,1.42E+12,-2.8919861,-4.4349775,3.0111382,6.090941002,-3.039013998,-9.765459922,-0.308050217,11.33525434,,,
55:47.7,1.42E+12,-3.3651521,-3.3626075,2.7277775,5.483807796,-3.038693237,-9.81466169,-0.28046778,11.37018351,,,
55:47.8,1.42E+12,-3.23642,-2.9193792,2.639012,5.095250108,-3.03108661,-9.849716347,-0.236217964,11.39594439,,,
55:47.8,1.42E+12,-3.1382241,-2.088457,2.016756,4.275208522,-3.026586786,-9.82386602,-0.18690928,11.38596559,,,
55:47.8,1.42E+12,-3.3721876,-1.3525872,1.0591974,3.7845793,-3.009491727,-9.682700392,-0.036505721,11.23418069,,,
55:47.8,1.42E+12,-3.1961536,-1.8453625,-0.30446684,3.703169001,-2.949426837,-9.368531259,0.301347833,10.80195197,,,
55:47.8,1.42E+12,-3.5115478,-4.9334407,-3.8193078,7.159393631,-2.958958037,-9.122470518,0.532589429,10.47935345,,,
55:47.8,1.42E+12,-5.388644,-12.246932,-10.487192,17.00017716,-3.007402192,-9.223589824,0.48396196,10.59545248,,,
55:47.9,1.42E+12,-5.0487013,-18.536404,-14.943874,24.33941306,-2.993242863,-9.482765161,0.248000602,10.91138013,,,
55:47.9,1.42E+12,-2.55354,-14.627731,-11.966116,19.07037002,-2.897524563,-9.698445222,0.033927411,11.12845097,,,
55:47.9,1.42E+12,-2.5399182,-8.376132,-5.725294,10.45895612,-2.822044792,-9.773601182,-0.116650273,11.17904335,,,
55:47.9,1.42E+12,-3.5128949,-6.089936,-2.3302042,7.406591839,-2.722214637,-9.690786671,-0.255564461,11.04619796,,,
55:48.0,1.42E+12,-3.409909,-3.4200878,-2.5188122,5.446916086,-2.585826821,-9.392209606,-0.259994026,10.73270264,,,
55:48.0,1.42E+12,-2.4860303,-4.5677514,1.4289285,5.393193503,-2.622277552,-9.243364043,-0.291242312,10.59287007,,,
55:48.0,1.42E+12,-7.2259235,-9.118138,5.967191,13.07523535,-2.749577115,-9.304773063,-0.292394006,10.68346526,,,
55:48.0,1.42E+12,-10.97817,-17.911303,1.099763,21.03674096,-2.927492835,-9.572505084,-0.429527204,10.92002098,,,
55:48.0,1.42E+12,-2.0748353,-14.182258,0.60683805,14.34606691,-2.916376155,-9.711156559,-0.564402856,10.99536084,,,
55:48.0,1.42E+12,-2.1719832,-6.6680336,3.6371365,7.89993323,-2.944157157,-9.577518143,-0.548945205,10.88003942,,,
55:48.1,1.42E+12,-4.219126,-2.7638526,5.5094433,7.469529495,-3.054138647,-9.351585931,-0.400224874,10.74682003,,,
55:48.2,1.42E+12,-4.386927,-4.769981,5.9125547,8.772465464,-3.135129403,-9.226476727,-0.272897817,10.7031307,,,
55:48.2,1.42E+12,-2.5285418,-11.636501,6.4756837,13.55493115,-3.128457562,-9.288212604,-0.148460668,10.79444763,,,
55:48.2,1.42E+12,2.1439915,-15.573764,-0.22393432,15.72224447,-2.992955675,-9.456548257,-0.138245176,10.93928348,,,
55:48.2,1.42E+12,1.8494041,-11.806698,-1.497935,12.04417795,-2.860099305,-9.5470244,-0.158908329,11.00679113,,,
55:48.2,1.42E+12,-1.5233821,-9.325607,-0.72793627,9.477211096,-2.825869464,-9.582628931,-0.173409806,11.03226567,,,
55:48.2,1.42E+12,-3.645519,-7.5004525,-1.1153307,8.413712561,-2.870711926,-9.572596724,-0.199345669,11.03818475,,,
55:48.2,1.42E+12,-4.1076083,-7.085665,0.07484436,8.190524777,-2.938805022,-9.543156929,-0.204083775,11.03047094,,,
55:48.2,1.42E+12,-3.6054025,-7.44417,1.069526,8.340172663,-2.989436466,-9.503516908,-0.186878735,11.00769168,,,
55:48.2,1.42E+12,-2.1829107,-8.084239,0.7485933,8.407164282,-2.999065424,-9.467377765,-0.171414974,10.97513375,,,
55:48.3,1.42E+12,-1.391207,-8.560847,-0.11496094,8.673913436,-2.976786244,-9.441744316,-0.167911036,10.94541644,,,
55:48.3,1.42E+12,-1.7971628,-9.131761,0.64635587,9.329342367,-2.964560648,-9.427099276,-0.13874312,10.92832449,,,
55:48.3,1.42E+12,-2.5728498,-9.230704,1.0120454,9.635854312,-2.990065773,-9.397454786,-0.06874684,10.89980976,,,
55:48.3,1.42E+12,-2.7921438,-9.865086,-0.038320314,10.25268049,-3.045655278,-9.357292398,-0.016523806,10.86180489,,,
