time,time_milisec,ax,ay,az,resultant,MA_x,MA_y,MA_z,MA_R
45:27.0,1.42E+12,1.8205142,-9.46362,-0.9789642,9.686730427,0,0,0,0
45:27.0,1.42E+12,1.1160791,-9.638157,-0.69290906,9.727272273,0,0,0,0
45:27.0,1.42E+12,-0.55923706,-9.841734,-1.4747332,9.967312187,0,0,0,0
45:27.0,1.42E+12,-1.1464659,-9.831705,-1.7838405,10.0577778,0,0,0,0
45:27.0,1.42E+12,-0.5752537,-9.783505,-1.2337345,9.877752159,0,0,0,0
45:27.0,1.42E+12,-0.56627244,-10.023605,-0.85756665,10.07614719,0,0,0,0
45:27.1,1.42E+12,-1.5277231,-10.019265,-0.527054,10.14876322,0,0,0,0
45:27.1,1.42E+12,-2.2535636,-9.09853,-0.4472699,9.384127419,0,0,0,0
45:27.1,1.42E+12,-0.73946226,-8.938811,-0.18291962,8.971209847,0,0,0,0
45:27.1,1.42E+12,0.545316,-9.100625,-0.25686586,9.120566046,0,0,0,0
45:27.2,1.42E+12,0.07574249,-9.100775,-0.41598496,9.110591968,0,0,0,0
45:27.2,1.42E+12,-1.0457253,-8.89166,-0.4673282,8.965129927,0,0,0,0
45:27.2,1.42E+12,-1.282982,-9.196725,-0.023201752,9.285813473,0,0,0,0
45:27.2,1.42E+12,-1.2479548,-9.475595,1.0545571,9.615424196,0,0,0,0
45:27.2,1.42E+12,-0.9142987,-10.405312,1.2054433,10.51473031,0,0,0,0
45:27.2,1.42E+12,-0.47690827,-11.409124,1.1798465,11.4798776,0,0,0,0
45:27.3,1.42E+12,-0.9048683,-11.8355875,1.2871733,11.93971244,0,0,0,0
45:27.3,1.42E+12,-1.5301181,-11.842323,1.187331,11.99965126,0,0,0,0
45:27.3,1.42E+12,-2.2565575,-12.885205,0.8508307,13.10894628,0,0,0,0
45:27.3,1.42E+12,-2.32257,-14.333144,0.62285477,14.53345439,0,0,0,0
45:27.3,1.42E+12,-2.4188201,-14.595099,-0.082628176,14.79440546,0,0,0,0
45:27.4,1.42E+12,-2.8997698,-14.303206,-1.1075468,14.63615478,0,0,0,0
45:27.4,1.42E+12,-3.3144076,-13.429922,-2.4126828,14.04169295,0,0,0,0
45:27.4,1.42E+12,-3.1055918,-12.24798,-3.6784506,13.16011829,0,0,0,0
45:27.4,1.42E+12,-2.329905,-12.030183,-4.4867697,13.04932422,0,0,0,0
45:27.4,1.42E+12,-1.5120058,-12.730277,-5.6324873,14.00253646,0,0,0,0
45:27.5,1.42E+12,-1.6137941,-12.927567,-6.403384,14.51653012,0,0,0,0
45:27.5,1.42E+12,-2.4146287,-13.577815,-2.8858488,14.08955696,0,0,0,0
45:27.5,1.42E+12,-2.0097208,-12.585528,5.1904564,13.76137095,0,0,0,0
45:27.5,1.42E+12,-1.7461189,-13.722713,3.6982095,14.31916676,0,0,0,0
45:27.6,1.42E+12,-4.1200323,-11.622581,-1.6991167,12.44773284,0,0,0,0
45:27.6,1.42E+12,-4.8124924,-10.501712,-0.28830048,11.55548161,0,0,0,0
45:27.6,1.42E+12,-1.7633331,-11.146122,1.6607964,11.40629756,0,0,0,0
45:27.6,1.42E+12,0.45265868,-11.351495,-0.21151017,11.36248543,0,0,0,0
45:27.6,1.42E+12,0.71191955,-9.70911,-0.008681946,9.735179598,0,0,0,0
45:27.6,1.42E+12,-0.07933502,-8.026159,-1.3895603,8.145943786,0,0,0,0
45:27.7,1.42E+12,-1.0318043,-6.8052983,-1.171464,6.982050771,0,0,0,0
45:27.7,1.42E+12,-2.1035757,-5.9481807,0.043858796,6.30934291,0,0,0,0
45:27.7,1.42E+12,-2.1029768,-5.26081,-1.0582993,5.763560591,0,0,0,0
45:27.7,1.42E+12,-2.101929,-3.9014869,-2.7553203,5.218380545,0,0,0,0
45:27.7,1.42E+12,-2.4728577,-3.2169602,-3.1144235,5.115026087,0,0,0,0
45:27.8,1.42E+12,-3.0365853,-2.8029213,-2.417922,4.787855981,0,0,0,0
45:27.8,1.42E+12,-2.9556038,-3.1476545,-2.119293,4.809857118,0,0,0,0
45:27.8,1.42E+12,-2.193838,-2.9193792,-3.0014086,4.726960299,0,0,0,0
45:27.8,1.42E+12,-1.5395485,-2.9151878,-5.6627245,6.552478787,0,0,0,0
45:27.8,1.42E+12,-0.73407346,-2.762655,-6.409521,7.018054285,0,0,0,0
45:27.9,1.42E+12,0.20776795,-3.5134935,-5.4640875,6.499542776,0,0,0,0
45:27.9,1.42E+12,1.0671309,-4.3373804,-4.65008,6.447858644,0,0,0,0
45:27.9,1.42E+12,0.6036946,-4.4825783,-5.1139655,6.827195509,0,0,0,0
45:27.9,1.42E+12,-0.29608428,-4.3333387,-6.350544,7.693822151,-1.349159396,-9.119396026,-1.418740712,9.946939093
45:27.9,1.42E+12,-1.1027569,-3.722459,-7.837252,8.74615874,-1.407624818,-9.004572806,-1.555906468,9.928127659
45:28.0,1.42E+12,-1.0800041,-5.7814274,-10.418934,11.96434275,-1.451546482,-8.927438214,-1.750426967,9.972869069
45:28.0,1.42E+12,-1.5290703,-11.09867,-12.091556,16.48406073,-1.470943147,-8.952576934,-1.962763423,10.10320404
45:28.0,1.42E+12,-2.0026853,-13.154196,-8.8846245,15.9993804,-1.488067535,-9.019026754,-2.104779103,10.22203609
45:28.0,1.42E+12,-1.7637821,-10.667716,-5.484595,12.12402055,-1.511838103,-9.036710974,-2.189796313,10.26696146
45:28.0,1.42E+12,-4.297713,-4.963678,-3.1966026,7.302513574,-1.586466914,-8.935512434,-2.236577032,10.21148879
45:28.1,1.42E+12,-3.8931043,-4.54919,-4.652176,7.582488528,-1.633774538,-8.826110934,-2.319079472,10.16016329
45:28.1,1.42E+12,-3.1720536,-7.8362045,-5.520819,10.09690385,-1.652144338,-8.800864424,-2.420550454,10.17441882
45:28.1,1.42E+12,-3.8740938,-10.628049,-4.4384203,12.15169137,-1.714836969,-8.834649184,-2.505660468,10.23802845
45:28.2,1.42E+12,-3.8356237,-11.794872,-4.24143,13.10804116,-1.802455763,-8.888534124,-2.58535175,10.31777795
45:28.2,1.42E+12,-2.5391698,-10.980566,-3.576812,11.82428844,-1.854754009,-8.926129944,-2.648568291,10.37205188
45:28.2,1.42E+12,-1.7956659,-9.451795,-2.171684,9.862913167,-1.869752821,-8.937332644,-2.682655407,10.39000755
45:28.2,1.42E+12,-1.8791922,-8.674911,-1.2840298,8.968510284,-1.881677025,-8.926896364,-2.707871968,10.38366148
45:28.2,1.42E+12,-1.7238153,-8.668175,-0.631387,8.860442797,-1.891194235,-8.910747964,-2.74159085,10.36856186
45:28.2,1.42E+12,-1.0105486,-9.292077,-0.067359924,9.347108687,-1.893119233,-8.888483264,-2.767046915,10.34520942
45:28.2,1.42E+12,0.0809816,-10.637479,0.36164796,10.64393286,-1.881961436,-8.873050364,-2.783410885,10.32849053
45:28.3,1.42E+12,0.221689,-11.590847,-0.33171022,11.59771149,-1.85943029,-8.868155554,-2.815788556,10.32165051
45:28.3,1.42E+12,0.05733078,-11.84921,-0.33694932,11.85413849,-1.827681312,-8.868293294,-2.846274162,10.31874026
45:28.3,1.42E+12,0.0291893,-10.741962,0.1790277,10.7434934,-1.781966376,-8.825428434,-2.859710222,10.2714312
45:28.3,1.42E+12,-0.050894164,-9.654024,0.027542725,9.65419744,-1.736532859,-8.731846034,-2.871616463,10.17384606
45:28.3,1.42E+12,0.021255799,-9.021589,-0.50519943,9.035748246,-1.687731341,-8.620375834,-2.880067888,10.05867291
45:28.4,1.42E+12,0.086969145,-9.492809,-1.2533437,9.575586498,-1.627996562,-8.524167894,-2.882983826,9.957461549
45:28.4,1.42E+12,0.032482453,-9.737102,-1.1729608,9.807550536,-1.561058761,-8.450311494,-2.858189386,9.872778701
45:28.4,1.42E+12,1.50E-04,-9.166937,-0.4459227,9.177776476,-1.498943925,-8.388690634,-2.793538828,9.793131864
45:28.4,1.42E+12,0.5945636,-9.006321,0.21270767,9.028431114,-1.440454553,-8.328213394,-2.699549281,9.712714002
45:28.5,1.42E+12,0.7908055,-9.298813,-0.068407744,9.332629649,-1.394398327,-8.259584114,-2.58826769,9.619315866
45:28.5,1.42E+12,0.17543519,-9.433982,-1.6028668,9.57078763,-1.358613742,-8.189712414,-2.492257346,9.520401016
45:28.5,1.42E+12,-0.68467623,-9.084458,-2.0077748,9.328843355,-1.324014692,-8.099845274,-2.474695866,9.425186744
45:28.5,1.42E+12,-1.3082794,-9.527088,-2.329007,9.894507282,-1.309985864,-8.038676474,-2.625085134,9.347849471
45:28.5,1.42E+12,-0.7873627,-9.385932,-0.63617706,9.440359145,-1.29081074,-7.951940854,-2.711772865,9.250273318
45:28.5,1.42E+12,-0.9836046,-9.149573,-0.15283218,9.203560277,-1.228082186,-7.902480694,-2.680847174,9.185389867
45:28.6,1.42E+12,-1.5365547,-9.289682,-0.5119354,9.42980752,-1.162563432,-7.878240094,-2.685319873,9.142876385
45:28.6,1.42E+12,-1.9327807,-9.273815,-0.011226654,9.473088827,-1.165952384,-7.840793954,-2.718760334,9.104212211
45:28.6,1.42E+12,-1.0829979,-8.944799,-0.8608598,9.051154247,-1.196665516,-7.792660034,-2.731747327,9.057985587
45:28.6,1.42E+12,0.003442841,-9.023985,-1.9043399,9.222734279,-1.21083505,-7.778957534,-2.769660486,9.047736681
45:28.6,1.42E+12,0.45280838,-8.8829775,-1.0120454,8.951902624,-1.200192182,-7.796093904,-2.762110188,9.063855857
45:28.7,1.42E+12,-0.29488677,-8.848699,-0.50355285,8.86791958,-1.185453831,-7.836961918,-2.748751965,9.101573234
45:28.7,1.42E+12,-0.8273296,-9.135952,-0.28740233,9.177837072,-1.159928909,-7.900717344,-2.755377187,9.158943117
45:28.7,1.42E+12,-0.8143066,-9.82901,0.1194516,9.863407195,-1.134155505,-7.992081344,-2.731822169,9.240940049
45:28.7,1.42E+12,-0.547711,-10.10339,0.4219725,10.12702017,-1.103071145,-8.116119406,-2.668276313,9.339112841
45:28.7,1.42E+12,-0.5888754,-10.852732,0.77329195,10.89617119,-1.065391499,-8.268834842,-2.590522004,9.454735743
45:28.8,1.42E+12,-0.52076703,-11.685599,1.6557069,11.8137965,-1.015075134,-8.446488396,-2.509049426,9.595254554
45:28.8,1.42E+12,-0.33739838,-12.713662,2.8961773,13.04372961,-0.962711026,-8.637808546,-2.40874002,9.759932004
45:28.8,1.42E+12,-0.72075117,-13.441598,2.1731808,13.63520274,-0.933249289,-8.848252922,-2.305248232,9.938096852
45:28.8,1.42E+12,-1.5287709,-13.692027,0.79679304,13.80013127,-0.933033737,-9.063789706,-2.176057881,10.0830499
45:28.8,1.42E+12,-2.878065,-14.206657,0.26584718,14.49769071,-0.975913568,-9.292669746,-2.042550518,10.23264263
45:28.9,1.42E+12,-3.6001635,-14.2237215,-0.9476793,14.70284077,-1.052072197,-9.506874306,-1.952222354,10.39670859
45:28.9,1.42E+12,-3.3422499,-13.585599,-2.4719596,14.20738255,-1.140259813,-9.691838678,-1.908659946,10.55189907
45:28.9,1.42E+12,-3.1799872,-12.851376,-3.1660662,13.61227971,-1.215933449,-9.859214632,-1.86970196,10.68760075
45:28.9,1.42E+12,-2.958448,-12.225227,-3.4284704,13.03698581,-1.269180723,-10.0170524,-1.811260488,10.79446403
45:29.0,1.42E+12,-1.9538869,-12.369976,-3.9871087,13.14271722,-1.286203323,-10.19000274,-1.734257622,10.8823952
45:29.0,1.42E+12,-0.9183403,-12.290043,-5.9049206,13.6658916,-1.282970047,-10.32017505,-1.643977354,10.91642617
45:29.0,1.42E+12,-1.0340496,-12.524605,-6.660549,14.2231467,-1.273069633,-10.34869375,-1.535357214,10.87120789
45:29.0,1.42E+12,-0.8464897,-13.049264,-0.9168434,13.10879238,-1.249945721,-10.34659511,-1.376001592,10.81339613
45:29.0,1.42E+12,-1.044977,-13.043575,6.397247,14.56542464,-1.235569619,-10.39411229,-1.138364752,10.86222421
45:29.0,1.42E+12,-1.5838563,-13.444442,1.6796571,13.6412195,-1.181292485,-10.56372757,-1.040839558,10.98899833
45:29.1,1.42E+12,-4.2739124,-10.315648,-1.491199,11.26510521,-1.188908647,-10.67905673,-0.977620018,11.06265067
45:29.1,1.42E+12,-3.9224432,-10.375673,-0.66536635,11.11228434,-1.203916439,-10.7298461,-0.880510965,11.08295828
45:29.1,1.42E+12,-2.0618124,-10.855426,0.8690927,11.08362153,-1.167670811,-10.73439364,-0.774360705,11.06159688
45:29.1,1.42E+12,-1.3407619,-9.784553,-1.2802876,9.958627226,-1.117773575,-10.69418726,-0.715137857,10.9986086
45:29.1,1.42E+12,-0.39173537,-8.332422,-1.7317488,8.519487478,-1.074824887,-10.64122438,-0.678236593,10.93251258
45:29.2,1.42E+12,-0.57705003,-7.613767,-1.1229647,7.717738295,-1.050452569,-10.60446382,-0.657262207,10.88960908
45:29.2,1.42E+12,-1.4102174,-6.940168,-1.6959732,7.282236612,-1.041073073,-10.56976896,-0.665501075,10.85588361
45:29.2,1.42E+12,-1.4188994,-6.2893214,-0.80487627,6.497435262,-1.034974755,-10.52219189,-0.66897086,10.80862346
45:29.2,1.42E+12,-1.529669,-5.536387,-1.2888199,5.886639534,-1.045357163,-10.44707809,-0.69340006,10.73941408
45:29.3,1.42E+12,-2.060166,-4.7794113,-2.366429,5.717258306,-1.088180115,-10.32991673,-0.747961599,10.64088058
45:29.3,1.42E+12,-2.9621902,-3.7748501,-3.357069,5.856105901,-1.151857699,-10.1735968,-0.808468774,10.52604847
45:29.3,1.42E+12,-3.142565,-3.453169,-3.1530433,5.633983757,-1.215855615,-10.00567598,-0.864790654,10.40164538
45:29.3,1.42E+12,-2.7244844,-3.095413,-3.2389646,5.243595004,-1.270929089,-9.852744996,-0.9331505,10.29164741
45:29.3,1.42E+12,-2.1219873,-2.55354,-3.8318815,5.070178741,-1.312350951,-9.710735316,-1.010338985,10.19996704
45:29.3,1.42E+12,-2.2257216,-2.1615052,-4.9061975,5.804887189,-1.357290499,-9.57353364,-1.098358946,10.13534982
45:29.4,1.42E+12,-1.7368382,-2.4466622,-4.8603926,5.711933042,-1.393766646,-9.432610704,-1.170499924,10.05807675
45:29.4,1.42E+12,-0.825683,-2.8131,-4.8422804,5.660650448,-1.410929955,-9.294130664,-1.243886316,9.975138744
45:29.5,1.42E+12,0.07334747,-3.11607,-5.6833816,6.481982606,-1.409466006,-9.173113324,-1.348635494,9.921222867
45:29.5,1.42E+12,0.44113266,-3.1570847,-6.3843737,7.135965903,-1.412534625,-9.056128598,-1.480577121,9.883373563
45:29.5,1.42E+12,0.1594185,-3.204087,-8.016879,8.6349254,-1.425162365,-8.934234078,-1.639546546,9.869419478
45:29.5,1.42E+12,0.3966751,-5.25602,-11.749367,12.8775278,-1.420737567,-8.850674838,-1.84247655,9.935554281
45:29.5,1.42E+12,-0.9979747,-7.2724767,-11.531121,13.66936803,-1.427003536,-8.814435212,-2.032943474,10.02236477
45:29.5,1.42E+12,-2.6006918,-8.776549,-8.721165,12.64318509,-1.452851784,-8.799424432,-2.160786634,10.07733833
45:29.5,1.42E+12,-2.7521768,-10.313104,-5.5747075,12.04209097,-1.492148066,-8.817967872,-2.259557243,10.12937297
45:29.5,1.42E+12,-5.3561616,-6.810687,-4.282594,9.665119547,-1.579599206,-8.771190152,-2.34215248,10.13860415
45:29.6,1.42E+12,-2.8551626,-7.2250257,-5.905669,9.758579619,-1.605971364,-8.729897026,-2.450027152,10.14517959
45:29.6,1.42E+12,-3.0871801,-7.8704834,-5.4986653,10.08516286,-1.629059352,-8.701830394,-2.559775925,10.15742108
45:29.6,1.42E+12,-4.4045906,-9.540112,-4.2299037,11.32723447,-1.695491206,-8.713736654,-2.627156803,10.20294268
45:29.6,1.42E+12,-4.0180945,-10.38705,-3.9258862,11.80883032,-1.775921953,-8.740997954,-2.667587729,10.2546646
45:29.6,1.42E+12,-3.1808853,-10.212812,-3.4805622,11.24872764,-1.848595826,-8.767594644,-2.716958065,10.3006011
45:29.7,1.42E+12,-2.657873,-9.871971,-2.599195,10.54873997,-1.895855551,-8.788060084,-2.758870908,10.33421751
45:29.7,1.42E+12,-2.2757177,-9.605375,-1.6579523,10.00954174,-1.924823313,-8.797448544,-2.786281907,10.3508516
45:29.7,1.42E+12,-2.1109104,-9.392518,-0.9610016,9.674650442,-1.950755389,-8.788718704,-2.807890971,10.34707647
45:29.7,1.42E+12,-1.7381854,-9.686058,-0.73332506,9.868068388,-1.974564877,-8.780372064,-2.830996922,10.34189743
45:29.8,1.42E+12,-0.99587905,-10.322535,0.07349716,10.37072349,-1.98270495,-8.769768124,-2.844992818,10.33138848
45:29.8,1.42E+12,-0.0981958,-11.103161,0.24563919,11.10631195,-1.974253525,-8.758119364,-2.873194172,10.31723879
45:29.8,1.42E+12,0.3450325,-11.304642,-0.09460327,11.31030185,-1.960604908,-8.729938964,-2.933009784,10.28257023
45:29.8,1.42E+12,0.45834687,-10.552156,-0.003143463,10.56210623,-1.937022947,-8.672150124,-2.976536269,10.2211083
45:29.8,1.42E+12,0.547711,-9.987082,-0.17693207,10.00365429,-1.895493309,-8.598051224,-2.996010771,10.14517876
45:29.9,1.42E+12,0.45430526,-9.742939,-0.5272037,9.767763171,-1.828845904,-8.508776864,-3.011871789,10.05058021
45:29.9,1.42E+12,-0.09280701,-9.342671,-0.50924104,9.356999572,-1.758698774,-8.411155854,-3.003103023,9.943663387
45:29.9,1.42E+12,-0.120349735,-8.811726,-0.44517425,8.823784861,-1.694260771,-8.315678394,-2.962567316,9.835991433
45:29.9,1.42E+12,-0.27827132,-8.528665,-0.9665401,8.587768125,-1.636226453,-8.229224174,-2.918576794,9.735501201
45:29.9,1.42E+12,0.37227586,-9.057964,-1.2838801,9.156071715,-1.569611976,-8.165878914,-2.875684988,9.657882919
45:29.9,1.42E+12,1.052162,-9.528885,-1.4882053,9.701620959,-1.509490998,-8.109057094,-2.82570692,9.589060994
45:30.0,1.42E+12,0.9461824,-9.375604,-2.1992266,9.676456435,-1.472200544,-8.050768314,-2.75159304,9.509272291
45:30.0,1.42E+12,-0.37182677,-9.313482,-2.1842577,9.57341025,-1.458956087,-7.986545854,-2.662067214,9.416277562
45:30.0,1.42E+12,-0.8656499,-9.569301,-1.6679814,9.752078411,-1.459339291,-7.916946594,-2.677089974,9.349143282
45:30.0,1.42E+12,-1.0981164,-9.217532,-1.5631993,9.413413188,-1.460402079,-7.840425734,-2.8362989,9.246103053
45:30.0,1.42E+12,-1.2000545,-9.587563,-1.215173,9.738487588,-1.452726043,-7.763288154,-2.894195502,9.168048415
45:30.1,1.42E+12,-2.5706043,-9.321266,-0.13846207,9.6702212,-1.418659881,-7.743400514,-2.867140764,9.136150735
45:30.1,1.42E+12,-2.5942552,-8.546178,0.31015503,8.936638887,-1.392096121,-7.706810614,-2.847630336,9.092637826
45:30.2,1.42E+12,-0.36793488,-9.18924,-0.9735754,9.247992048,-1.358218571,-7.673486894,-2.884483698,9.055925236
45:30.2,1.42E+12,0.63872176,-9.449849,-1.1605366,9.5422459,-1.318628898,-7.666792814,-2.882088678,9.04759761
45:30.2,1.42E+12,0.37122804,-9.1941805,-1.4500346,9.315222255,-1.30336963,-7.684027984,-2.876454394,9.063512305
45:30.2,1.42E+12,-0.04805008,-9.065897,-0.43724075,9.076561943,-1.292789631,-7.713070584,-2.862739915,9.090688778
45:30.2,1.42E+12,-0.9333092,-9.423953,0.51028883,9.483794119,-1.283251467,-7.762746284,-2.818614675,9.134719928
45:30.2,1.42E+12,-1.1645782,-10.036329,1.0006691,10.15310203,-1.278165043,-7.837686436,-2.782503767,9.207833264
45:30.2,1.42E+12,-1.0981164,-10.5129385,1.3398638,10.65471588,-1.269533991,-7.937217466,-2.729930093,9.303194791
45:30.2,1.42E+12,-0.6788384,-11.627071,1.64942,11.76308582,-1.241907439,-8.07417066,-2.649613113,9.424111341
45:30.3,1.42E+12,-0.6161188,-12.644356,2.206262,12.85017249,-1.194986011,-8.251560778,-2.538346493,9.563992673
45:30.3,1.42E+12,-1.4338683,-12.34423,1.1831397,12.48342149,-1.160812077,-8.429381998,-2.451622833,9.700981427
45:30.3,1.42E+12,-2.6940975,-13.348342,0.97177917,13.65213354,-1.160204339,-8.634440578,-2.367407958,9.869152198
45:30.3,1.42E+12,-3.201243,-14.290632,0.8569679,14.6698505,-1.181789453,-8.869182418,-2.27363097,10.06114563
45:30.3,1.42E+12,-2.5230033,-13.918207,-0.41433838,14.15110271,-1.187735087,-9.104316454,-2.183793787,10.22806994
45:30.4,1.42E+12,-2.296674,-13.3585205,-1.6146922,13.65034843,-1.198931803,-9.32255362,-2.118879779,10.38683825
45:30.4,1.42E+12,-2.5262966,-12.691807,-2.270179,13.13841132,-1.232944075,-9.52012776,-2.067437751,10.53639347
45:30.5,1.42E+12,-2.1270766,-11.932137,-3.0737083,12.50392062,-1.276952556,-9.6964491,-2.015244285,10.65683223
45:30.5,1.42E+12,-1.8247055,-12.421769,-3.760929,13.10627644,-1.322269319,-9.881742786,-1.962775391,10.77623844
45:30.5,1.42E+12,-1.8034497,-13.357324,-4.898863,14.34117826,-1.361526683,-10.08480753,-1.900415071,10.8903635
45:30.5,1.42E+12,-1.8938617,-13.427527,-7.31903,15.40952282,-1.407337419,-10.24823767,-1.811808331,10.9410034
45:30.5,1.42E+12,-2.3757098,-13.790972,-5.669161,15.09881758,-1.434892121,-10.37860757,-1.694569131,10.96959239
45:30.5,1.42E+12,-1.2374767,-12.612772,6.4723907,14.23043244,-1.407627819,-10.45533203,-1.390698017,11.00133734
45:30.5,1.42E+12,-2.0784278,-13.429772,6.34276,14.99697445,-1.394152839,-10.51766539,-1.152348667,11.06043501
45:30.5,1.42E+12,-4.9288006,-10.691367,1.1777508,11.83154684,-1.385605619,-10.59527899,-1.043141771,11.10376355
45:30.6,1.42E+12,-4.844376,-10.010134,-0.37347335,11.12700516,-1.425389887,-10.65098116,-0.932497858,11.13113206
45:30.6,1.42E+12,-2.3478675,-10.904674,-0.65623534,11.17385527,-1.410603635,-10.71166497,-0.835649259,11.15290591
45:30.6,1.42E+12,0.20642075,-11.557915,-1.2596306,11.62818464,-1.318383408,-10.75202103,-0.776243797,11.15892491
45:30.6,1.42E+12,-0.02350113,-8.810379,-1.4397061,8.927266327,-1.238491541,-10.72048761,-0.726520195,11.10129363
45:30.6,1.42E+12,-0.6715036,-7.5823326,-0.91804093,7.667169223,-1.188303907,-10.66787802,-0.67526977,11.02966247
45:30.7,1.42E+12,-1.4659016,-7.099287,-0.42257127,7.261357303,-1.164464479,-10.61242434,-0.631737295,10.96391481
45:30.7,1.42E+12,-1.5880476,-6.55921,-0.41852966,6.761678644,-1.150711077,-10.55150104,-0.606948842,10.89895755
45:30.8,1.42E+12,-1.9806812,-5.544171,-0.85816544,5.949569566,-1.148106493,-10.4745341,-0.604892119,10.82445593
45:30.8,1.42E+12,-2.131268,-4.733157,-1.4260844,5.38319563,-1.155968145,-10.37547608,-0.618747306,10.73475848
45:30.8,1.42E+12,-2.1330643,-3.9613624,-2.3328986,5.068014527,-1.17871185,-10.24825263,-0.666875221,10.6287043
45:30.8,1.42E+12,-2.3059547,-2.934348,-2.7966344,4.663581159,-1.222867028,-10.08487637,-0.727720693,10.49984968
45:30.8,1.42E+12,-2.2104533,-2.376009,-2.7825637,4.274831377,-1.273976744,-9.90630371,-0.781479902,10.35914027
45:30.8,1.42E+12,-2.2915847,-2.0535796,-3.4630485,4.632629332,-1.328975375,-9.736332182,-0.850678002,10.24055073
45:30.8,1.42E+12,-2.5418642,-2.0913012,-4.9579897,5.95115755,-1.390766879,-9.578416566,-0.946299155,10.1595008
45:30.8,1.42E+12,-1.7212706,-2.8491752,-5.6959553,6.597308434,-1.434278396,-9.44054129,-1.049674187,10.09609171
45:30.9,1.42E+12,-0.5812413,-3.0472133,-5.5140834,6.326805362,-1.444047082,-9.314632136,-1.149771034,10.03548782
45:30.9,1.42E+12,0.25536895,-3.5414855,-5.6477556,6.671167526,-1.436532708,-9.209227326,-1.253822661,9.992435474
45:30.9,1.42E+12,0.39697447,-4.156407,-5.892197,7.221585239,-1.423027793,-9.121782166,-1.352335799,9.965111817
45:30.9,1.42E+12,-0.429906,-4.0920405,-6.418503,7.624093086,-1.43907143,-9.022463696,-1.455028257,9.934472244
45:30.9,1.42E+12,-0.99498093,-4.921915,-8.715476,10.05856631,-1.480014288,-8.930324296,-1.599573671,9.941611151
45:31.0,1.42E+12,-1.3879138,-6.8892736,-11.057356,13.10166086,-1.526696212,-8.880597688,-1.776736259,10.01011524
45:31.0,1.42E+12,-1.8637743,-7.6351724,-11.543245,13.96481355,-1.556535163,-8.847031496,-1.963916005,10.09794331
45:31.0,1.42E+12,-2.0914507,-8.873997,-8.492141,12.4594722,-1.581051179,-8.833125416,-2.100399197,10.15209118
45:31.1,1.42E+12,-2.3625371,-8.436307,-5.0214577,10.09791537,-1.606339593,-8.817500916,-2.169564365,10.16578122
45:31.1,1.42E+12,-4.3593845,-5.1897078,-3.2250435,7.505878086,-1.669526193,-8.729543812,-2.209761775,10.12112903
45:31.1,1.42E+12,-3.1548395,-6.60741,-7.0961437,10.1963785,-1.681210897,-8.675266692,-2.348915408,10.13165218
45:31.1,1.42E+12,-2.0342698,-8.418942,-6.1830425,10.64175045,-1.670011189,-8.672721972,-2.478779358,10.16575441
45:31.1,1.42E+12,-3.841312,-9.492809,-5.0296907,11.40907048,-1.739478731,-8.678793352,-2.559901664,10.20897598
45:31.1,1.42E+12,-3.9562728,-10.139764,-5.377268,12.14009553,-1.831378623,-8.692591652,-2.644236292,10.26093297
45:31.1,1.42E+12,-3.6339931,-10.080936,-4.233197,11.5217678,-1.911483045,-8.710326762,-2.69989954,10.30506388
45:31.2,1.42E+12,-3.0181737,-9.538465,-2.5451574,10.3232511,-1.970885518,-8.719778122,-2.742057873,10.32999767
45:31.2,1.42E+12,-2.7334657,-8.999136,-1.8368303,9.582809037,-2.006888648,-8.711281782,-2.789000256,10.33197797
45:31.2,1.42E+12,-2.3599923,-9.428294,-1.4739848,9.830306333,-2.03079693,-8.699121082,-2.838493334,10.32552205
45:31.2,1.42E+12,-1.8242564,-10.054741,-1.1238629,10.28050562,-2.04531973,-8.689957132,-2.887767868,10.31803785
45:31.2,1.42E+12,-1.0750644,-10.629546,-0.24069947,10.68648435,-2.05324425,-8.670006632,-2.925570257,10.29650582
45:31.3,1.42E+12,-0.17199235,-11.263477,0.12798385,11.26551709,-2.044361721,-8.642389052,-2.96713582,10.26481271
45:31.3,1.42E+12,0.11750565,-11.800112,0.03173401,11.80073972,-2.013334242,-8.631506692,-2.990163934,10.25115907
45:31.3,1.42E+12,0.4445755,-10.964549,0.44502458,10.98257843,-1.950560782,-8.583830832,-3.000699026,10.19776797
45:31.3,1.42E+12,0.52765274,-10.354568,-0.19220032,10.3697848,-1.875982867,-8.505109552,-3.02168239,10.11176666
45:31.4,1.42E+12,0.2402504,-9.905202,-0.21031265,9.910347034,-1.820717793,-8.424849452,-3.017601876,10.02695154
45:31.4,1.42E+12,-0.28186387,-9.541308,-0.29533586,9.55003816,-1.78042159,-8.348505202,-2.991214749,9.944945339
45:31.4,1.42E+12,-0.4008664,-8.810229,-0.5041516,8.833742001,-1.737912986,-8.270873642,-2.955894201,9.858851952
45:31.4,1.42E+12,-0.27961853,-8.5357,-1.0981164,8.610587706,-1.700963825,-8.202944902,-2.916382363,9.780985294
45:31.4,1.42E+12,0.28994706,-8.834928,-1.1855347,8.918829216,-1.658670774,-8.131208082,-2.864874477,9.69723635
45:31.4,1.42E+12,1.0523117,-9.050629,-0.7006929,9.138501833,-1.601555546,-8.045074182,-2.780911075,9.593182821
45:31.5,1.42E+12,1.4139596,-9.091495,-0.9595047,9.250687129,-1.53539912,-7.958353542,-2.653720569,9.470006107
45:31.5,1.42E+12,0.11511063,-8.826096,-1.6507672,8.979880478,-1.485582711,-7.859056022,-2.573352693,9.347627365
45:31.5,1.42E+12,-1.1268567,-9.405092,-2.2378464,9.73311451,-1.483370311,-7.794902422,-2.747557435,9.257681007
45:31.5,1.42E+12,-1.7955163,-9.010213,-1.4028827,9.293863403,-1.477712081,-7.706511242,-2.902470289,9.143618786
45:31.5,1.42E+12,-1.8841319,-8.735385,-1.0026151,8.992337914,-1.416818707,-7.667391602,-2.946077607,9.086834607
45:31.6,1.42E+12,-1.8498532,-9.234596,-1.0871892,9.480595999,-1.356928251,-7.651880842,-2.960351924,9.053906424
45:31.6,1.42E+12,-1.6655864,-9.424103,-1.1135345,9.634721298,-1.343282629,-7.622269422,-2.969497907,9.023123744
45:31.6,1.42E+12,-0.41733214,-9.639055,-2.19279,9.894133383,-1.355757687,-7.583892222,-2.988161095,8.988442719
45:31.6,1.42E+12,1.1153307,-8.993149,-1.7889299,9.236934648,-1.33298105,-7.587547622,-2.995145571,8.994636086
45:31.6,1.42E+12,1.5893948,-8.282427,-1.0262659,8.495763329,-1.287763082,-7.60154951,-2.997310071,9.011207968
45:31.7,1.42E+12,0.9584569,-8.589888,-0.6981482,8.671345132,-1.239275912,-7.63136153,-3.002821609,9.039407724
45:31.7,1.42E+12,-0.25671616,-9.548643,-0.07304809,9.552372603,-1.212649284,-7.69115019,-2.995911978,9.095221604
45:31.7,1.42E+12,-0.7158115,-11.278596,1.0270143,11.3478576,-1.18735189,-7.80583869,-2.958208383,9.203187364
45:31.7,1.42E+12,-1.0627899,-12.327914,1.8488054,12.51099786,-1.165982328,-7.95773383,-2.892710587,9.345743409
45:31.7,1.42E+12,-1.9478993,-12.875924,1.3395643,13.09114827,-1.162279028,-8.136025062,-2.819261329,9.506206084
45:31.8,1.42E+12,-3.077151,-13.547278,0.97432387,13.9264822,-1.177702954,-8.348283662,-2.743842164,9.691464105
45:31.8,1.42E+12,-2.9045599,-14.945221,0.7250922,15.24210804,-1.191585086,-8.599667902,-2.673689046,9.910809638
45:31.8,1.42E+12,-3.1150222,-14.822626,-0.049996033,15.14648819,-1.208053836,-8.85504883,-2.605427996,10.12108681
45:31.8,1.42E+12,-3.3775764,-14.253659,-1.9022442,14.77136927,-1.22476808,-9.098295986,-2.544313086,10.29749105
45:31.8,1.42E+12,-3.8556821,-14.184504,-3.4346077,15.09513061,-1.26745631,-9.325002562,-2.499086134,10.46744749
45:31.9,1.42E+12,-3.558101,-13.596227,-4.219276,14.67377802,-1.326993504,-9.535982836,-2.473189986,10.63438695
45:31.9,1.42E+12,-2.3321502,-12.8503275,-4.4583287,13.80023682,-1.378743887,-9.722159676,-2.449401448,10.77696833
45:31.9,1.42E+12,-1.5736775,-12.740755,-6.7286577,14.49407235,-1.418156926,-9.893846636,-2.466130662,10.92241807
45:31.9,1.42E+12,-1.4434483,-13.174254,-6.938072,14.95932333,-1.438427772,-10.07549091,-2.476522042,11.06912268
45:31.9,1.42E+12,-0.34143996,-14.508879,-0.16316071,14.51381316,-1.425356953,-10.26723019,-2.305475736,11.15822762
45:32.0,1.42E+12,-1.0165361,-15.336059,3.15454,15.69009796,-1.417929399,-10.43616589,-2.021237816,11.20999636
45:32.0,1.42E+12,-3.8785844,-12.214899,1.7618363,12.93643079,-1.458225601,-10.52776043,-1.75513619,11.1894287
45:32.0,1.42E+12,-5.3890934,-10.837314,0.76820254,12.12764765,-1.524178455,-10.56702677,-1.56992932,11.18279221
45:32.0,1.42E+12,-4.4053392,-10.556647,-1.1954141,11.50125316,-1.565034497,-10.60943357,-1.493408448,11.21085897
45:32.1,1.42E+12,-1.314716,-11.539204,-0.42137375,11.62150003,-1.504141127,-10.73642349,-1.437335053,11.29317141
45:32.1,1.42E+12,1.5617024,-11.210787,-1.2910652,11.39243209,-1.409810289,-10.82849103,-1.321233483,11.31709248
45:32.1,1.42E+12,1.7793498,-8.3024845,-0.49008086,8.505146315,-1.333537897,-10.82616188,-1.20737425,11.2743604
45:32.1,1.42E+12,0.47825545,-6.572233,-0.3915857,6.601235812,-1.247146548,-10.76775036,-1.11461215,11.1782037
45:32.1,1.42E+12,-0.7009923,-5.942642,-0.09056167,5.98452885,-1.182040938,-10.68380792,-1.008878023,11.05509237
45:32.1,1.42E+12,-1.379681,-5.776488,0.016316071,5.93898977,-1.136954696,-10.59771896,-0.923887762,10.94343681
45:32.2,1.42E+12,-2.3879843,-5.1055827,-1.0413845,5.731834384,-1.124350908,-10.50906131,-0.893812304,10.85160847
45:32.2,1.42E+12,-2.797233,-3.8594244,-2.115401,5.214843291,-1.125626254,-10.40626708,-0.899383718,10.76424916
45:32.2,1.42E+12,-3.460953,-2.341431,-2.36598,4.801911719,-1.147645468,-10.26452982,-0.917223622,10.66368127
45:32.2,1.42E+12,-3.7482057,-1.6007712,-2.7393036,4.910733002,-1.186124454,-10.09545043,-0.949532436,10.55628581
45:32.2,1.42E+12,-3.3223412,-1.4218931,-2.8129504,4.57956559,-1.23106999,-9.911297368,-1.000977454,10.43414744
45:32.3,1.42E+12,-2.6403594,-1.4952407,-3.4313145,4.580519808,-1.280437331,-9.715932642,-1.072163421,10.30044749
45:32.3,1.42E+12,-2.5488997,-1.6359481,-5.4673805,6.250237227,-1.333765438,-9.512649364,-1.182145712,10.18943744
45:32.3,1.42E+12,-2.6045837,-1.8854791,-5.572462,6.433600891,-1.394748622,-9.331067966,-1.302495443,10.09845789
45:32.4,1.42E+12,-1.733096,-2.3641837,-4.98688,5.784631228,-1.439963596,-9.17126028,-1.398389037,10.00675482
45:32.4,1.42E+12,-0.08951385,-3.0811927,-5.364245,6.186831629,-1.446558881,-9.034780094,-1.501467684,9.932284513
45:32.4,1.42E+12,0.6089337,-3.7015028,-5.9179435,7.006709534,-1.42874293,-8.91798399,-1.613919837,9.881417941
45:32.4,1.42E+12,-0.27692413,-3.5009198,-7.086264,7.908746038,-1.426264085,-8.811797806,-1.745562085,9.862918021
45:32.4,1.42E+12,-1.3299843,-2.9912298,-11.964021,12.40379428,-1.4472714,-8.700908402,-1.962880177,9.938782153
45:32.4,1.42E+12,-2.6301806,-6.4285316,-16.520695,17.92141824,-1.505673953,-8.652780474,-2.269583383,10.11883393
45:32.5,1.42E+12,-5.0019984,-11.684402,-8.240664,15.14773188,-1.626760155,-8.705455934,-2.420382805,10.23901853
45:32.5,1.42E+12,-3.629203,-11.100317,-2.8524683,12.02184376,-1.727623407,-8.745632374,-2.458242077,10.29444167
45:32.5,1.42E+12,-6.239325,-5.536387,-5.59252,10.04276045,-1.85471212,-8.679838194,-2.537077133,10.31569927
45:32.5,1.42E+12,-2.517016,-5.8823175,-5.8698936,8.682895807,-1.882515306,-8.609382704,-2.609718077,10.29469489
45:32.5,1.42E+12,-3.557502,-8.462203,-4.9118857,10.41111527,-1.91775502,-8.598422504,-2.679898137,10.31703993
45:32.6,1.42E+12,-5.217999,-11.055261,-4.5846663,13.05624274,-1.984432362,-8.644820024,-2.751539161,10.39831803
45:32.6,1.42E+12,-4.113446,-11.41137,-4.723428,13.01731829,-2.029704218,-8.688355504,-2.824263937,10.46905247
45:32.6,1.42E+12,-2.8889923,-10.184521,-3.6574943,11.20035754,-2.054172336,-8.703563864,-2.875143133,10.5003652
45:32.6,1.42E+12,-2.5180635,-8.875343,-2.5173151,9.562909205,-2.096186963,-8.688289624,-2.881633635,10.49374071
45:32.6,1.42E+12,-2.84678,-8.135582,-2.2900877,8.918315565,-2.175429177,-8.671138284,-2.891656791,10.48736833
45:32.6,1.42E+12,-2.9135413,-8.344697,-1.5028747,8.965563189,-2.265487899,-8.672383684,-2.901188967,10.49676433
45:32.7,1.42E+12,-1.6296611,-9.171428,-0.6261479,9.336109899,-2.317250259,-8.684014484,-2.899748961,10.51005962
45:32.7,1.42E+12,0.07738907,-10.431956,0.6372249,10.4516865,-2.310568154,-8.701680744,-2.885543501,10.5280459
45:32.7,1.42E+12,1.2596306,-11.527229,1.0428814,11.64264915,-2.271059312,-8.706653404,-2.885226159,10.53394173
45:32.7,1.42E+12,1.6697776,-12.021352,0.6047424,12.15182186,-2.216407962,-8.700522164,-2.910107419,10.52675821
45:32.8,1.42E+12,1.6979191,-10.895094,-0.006137237,11.02660601,-2.143491594,-8.660905564,-2.93702145,10.48546737
45:32.8,1.42E+12,0.8026309,-9.874965,-1.1204201,9.970681587,-2.065895956,-8.587459304,-2.978916329,10.40635136
45:32.8,1.42E+12,0.23935227,-9.114098,-0.18950592,9.119209634,-2.003017713,-8.470836844,-2.997208291,10.28389339
45:32.8,1.42E+12,-0.24414231,-9.069939,-0.19743942,9.075372238,-1.945600115,-8.355783104,-3.000157159,10.16247107
45:32.8,1.42E+12,-0.40850052,-8.711734,-0.96040285,8.77402733,-1.886218598,-8.244944604,-2.981320332,10.04252423
45:32.8,1.42E+12,-0.39727387,-8.042925,-0.45295808,8.065459696,-1.817050433,-8.122113024,-2.92168734,9.901930811
45:32.9,1.42E+12,-0.23546036,-7.7921963,-0.040415954,7.79585776,-1.75059762,-8.00603241,-2.838110139,9.764372406
45:32.9,1.42E+12,-0.19564316,-7.943232,-0.57914567,7.966719561,-1.707867479,-7.9078905,-2.760526478,9.647702061
45:32.9,1.42E+12,-0.39263353,-8.63165,-1.888922,8.844635048,-1.6842466,-7.8257084,-2.663731764,9.534713315
45:32.9,1.42E+12,-0.41388932,-9.586514,-1.9272423,9.787074023,-1.66365542,-7.7539536,-2.56351517,9.431268329
45:32.9,1.42E+12,-1.1096425,-9.831705,-0.7830217,9.925061847,-1.679019471,-7.66041012,-2.57591239,9.339493303
45:33.0,1.42E+12,-2.2968237,-9.47814,-0.68377805,9.776404727,-1.704625223,-7.54325174,-2.652678751,9.221219438
45:33.0,1.42E+12,-3.1976504,-9.354647,-2.0633094,10.09909076,-1.691006543,-7.4860467,-2.729181665,9.164472637
45:33.0,1.42E+12,-3.3751812,-9.520053,-2.2547612,10.3492611,-1.650728299,-7.45970148,-2.78964094,9.128904906
45:33.1,1.42E+12,-2.5331821,-9.304651,-0.92821974,9.687885924,-1.613285157,-7.43466156,-2.784297053,9.092637562
45:33.1,1.42E+12,-1.5892452,-9.096134,-0.066162415,9.234161116,-1.618775741,-7.38580016,-2.777192826,9.044890783
45:33.1,1.42E+12,-0.5373825,-9.27591,0.34158966,9.297740036,-1.660757439,-7.34710262,-2.744539729,9.002996942
45:33.1,1.42E+12,0.4459227,-9.547596,0.26644593,9.561716889,-1.687425981,-7.37200485,-2.729409193,9.024128354
45:33.1,1.42E+12,0.9596544,-9.767638,0.083376616,9.815021158,-1.677798002,-7.43591295,-2.719909947,9.088404061
45:33.1,1.42E+12,1.257535,-10.236014,-0.14564712,10.31399971,-1.638627456,-7.52178039,-2.721011656,9.174993478
45:33.1,1.42E+12,1.0835967,-10.683284,0.3849994,10.74499713,-1.589361902,-7.61991631,-2.713637989,9.271113625
45:33.2,1.42E+12,0.07589218,-10.688523,-0.10208771,10.68927993,-1.540084373,-7.731575116,-2.694852053,9.370262536
45:33.2,1.42E+12,-0.9457333,-11.121273,-0.9565109,11.20232287,-1.503054379,-7.876812088,-2.671674251,9.490012128
45:33.2,1.42E+12,-0.86834425,-14.009217,-1.1410772,14.08240888,-1.451202204,-8.110167808,-2.647176195,9.675622071
45:33.2,1.42E+12,-0.5430707,-15.851437,-0.35116974,15.8646242,-1.387099504,-8.395181124,-2.599413518,9.894699895
45:33.3,1.42E+12,-1.1952645,-15.162719,-1.108894,15.25012625,-1.34455797,-8.669997642,-2.56533239,10.10811111
45:33.3,1.42E+12,-1.6028668,-13.193115,-2.6086254,13.54372149,-1.323808118,-8.903955128,-2.548878608,10.28737514
45:33.3,1.42E+12,-0.83885556,-11.987522,-1.645079,12.12891781,-1.289607235,-9.110986606,-2.472432578,10.40494875
45:33.3,1.42E+12,-0.20357665,-12.008328,1.5667919,12.11182157,-1.241587094,-9.313443584,-2.3296475,10.51851317
45:33.3,1.42E+12,0.3143463,-11.904894,4.131708,12.60540859,-1.200638248,-9.50425779,-2.14727574,10.65492871
45:33.4,1.42E+12,0.868494,-11.538755,6.707851,13.37506687,-1.181478091,-9.673409036,-1.90583382,10.79869342
45:33.4,1.42E+12,0.64351183,-10.593171,6.7047076,12.55318618,-1.180786528,-9.8112424,-1.653380798,10.90962295
45:33.4,1.42E+12,-0.5295987,-10.820549,3.19301,11.29424935,-1.18584002,-9.957634984,-1.447795318,10.97733302
45:33.4,1.42E+12,-0.7114705,-10.984009,-0.8855585,11.04259289,-1.173469744,-10.11749057,-1.226226068,10.95010899
45:33.4,1.42E+12,-0.87522995,-10.476863,-1.9034418,10.68427707,-1.138370731,-10.1984572,-0.933881004,10.80536617
45:33.4,1.42E+12,-1.5750247,-10.3869,0.8171507,10.53736825,-1.069831257,-10.17250716,-0.75272471,10.71315889
45:33.5,1.42E+12,-1.4853612,-10.47851,5.3361034,11.85240352,-1.026954421,-10.16007102,-0.588953276,10.70977009
45:33.5,1.42E+12,-1.5946339,-9.145382,4.8518605,10.47479926,-0.934060599,-10.23225092,-0.380065666,10.71841087
45:33.5,1.42E+12,-1.085393,-8.63644,1.6136444,8.852684457,-0.905428139,-10.28733337,-0.230394906,10.72180664
45:33.5,1.42E+12,-1.479673,-8.303233,2.0389102,8.676996326,-0.863871559,-10.28415397,-0.091378988,10.68712426
45:33.6,1.42E+12,-1.9963984,-8.230784,2.689158,8.88611178,-0.799439547,-10.22766443,0.054097498,10.60372164
45:33.6,1.42E+12,-2.3980134,-7.6727443,2.7680438,8.501972703,-0.765130895,-10.15289191,0.203926934,10.51341473
45:33.6,1.42E+12,-2.859803,-6.9246,2.3888824,7.86354357,-0.764547109,-10.08769349,0.324854468,10.44667845
45:33.6,1.42E+12,-3.4732275,-6.5797176,1.2034973,7.536869291,-0.783650389,-10.04178098,0.399270716,10.40615765
45:33.6,1.42E+12,-3.6500099,-6.360124,-0.006137237,7.333061246,-0.799714987,-10.00627182,0.444949725,10.37445256
45:33.6,1.42E+12,-3.6660264,-6.0155406,-0.7518864,7.084617946,-0.814764689,-9.959688696,0.459969491,10.33683366
45:33.7,1.42E+12,-3.9453456,-5.891598,-1.6907341,7.289393712,-0.861078379,-9.894092096,0.438677767,10.29589934
45:33.7,1.42E+12,-3.3739839,-6.6166906,-2.177971,7.740020641,-0.930105838,-9.817786788,0.382373849,10.24166602
45:33.7,1.42E+12,-2.6006918,-8.406369,-2.550995,9.161780018,-1.007312286,-9.755369588,0.310496321,10.19204864
45:33.7,1.42E+12,-1.4600638,-10.608889,-2.8729756,11.08757417,-1.069909114,-9.727120328,0.240941961,10.17076368
45:33.7,1.42E+12,0.22782624,-12.095897,-3.016078,12.46833411,-1.099310971,-9.751136388,0.180743146,10.19959824
45:33.8,1.42E+12,0.9988728,-12.085867,-4.318819,12.87315523,-1.095386133,-9.795354428,0.116775168,10.25764772
45:33.8,1.42E+12,1.0819501,-11.962823,-6.663693,13.73624965,-1.078534177,-9.852328928,-0.012708574,10.34998852
45:33.8,1.42E+12,-0.43709105,-10.465636,-6.488557,12.32160531,-1.082393151,-9.880242868,-0.138530925,10.41491318
45:33.8,1.42E+12,-2.2070105,-8.725804,-2.306703,9.291470794,-1.118363351,-9.880524268,-0.165456928,10.42526205
45:33.8,1.42E+12,-2.9614418,-7.594607,0.1567241,8.153082574,-1.16964671,-9.871557908,-0.153263285,10.42701451
45:33.9,1.42E+12,-2.577939,-6.0944266,0.2640509,6.622501638,-1.216496282,-9.837602514,-0.147173948,10.40354738
45:33.9,1.42E+12,-2.5512946,-7.277267,0.8352631,7.75663481,-1.263609311,-9.824283214,-0.118885772,10.39934569
45:33.9,1.42E+12,-3.6809952,-15.613432,3.1672637,16.35116338,-1.329376545,-9.963918854,-0.017762058,10.54947626
45:33.9,1.42E+12,-4.5225453,-18.33118,-0.911754,18.90282708,-1.411549664,-10.13881217,0.002547708,10.73179132
45:33.9,1.42E+12,-1.9237994,-12.586127,-4.841831,13.62185466,-1.427832802,-10.19390061,-0.078628478,10.80572717
45:34.0,1.42E+12,-3.9520817,-4.403842,4.61655,7.505018856,-1.460937962,-10.09241465,0.027378083,10.76029946
45:34.0,1.42E+12,-3.6040554,-3.3197966,6.5644493,8.191596878,-1.469066062,-9.971717646,0.199933257,10.72214958
45:34.0,1.42E+12,-2.785258,-5.86181,4.469256,7.879893895,-1.457267598,-9.898552786,0.334413601,10.67276223
45:34.0,1.42E+12,-1.7555493,-9.560918,2.9352462,10.15424919,-1.441714942,-9.903678126,0.41168292,10.6820895
45:34.0,1.42E+12,-0.60683805,-13.972095,1.4503341,14.06026885,-1.422066799,-10.00119735,0.44201285,10.77861165
45:34.1,1.42E+12,1.5200889,-14.077476,-1.2903168,14.2179787,-1.380917371,-10.09722867,0.409374721,10.87701643
45:34.1,1.42E+12,2.1742287,-10.995984,-4.7057643,12.1566094,-1.346351251,-10.12619643,0.309930516,10.92891428
45:34.1,1.42E+12,-0.15013778,-8.839119,-2.446812,9.17275613,-1.368547095,-10.10762605,0.259326744,10.91606898
45:34.1,1.42E+12,-2.256258,-8.105794,1.4585669,8.539438737,-1.438822955,-10.06502165,0.291411024,10.88057776
45:34.2,1.42E+12,-3.1220577,-8.192464,3.165168,9.321051397,-1.522936043,-10.01520525,0.347014396,10.85209884
45:34.2,1.42E+12,-2.6027875,-8.931327,1.6678318,9.45117811,-1.576509636,-9.980061326,0.382412786,10.82733681
45:34.2,1.42E+12,-2.116748,-9.119486,-0.21659958,9.364430702,-1.59992993,-9.940025586,0.397211013,10.79057896
45:34.2,1.42E+12,-2.2309606,-9.170081,-0.014519806,9.437572864,-1.627182257,-9.843242866,0.419742161,10.69768224
45:34.2,1.42E+12,-2.1302202,-9.309291,1.0259665,9.604860451,-1.658925247,-9.712399946,0.447284886,10.57248697
45:34.2,1.42E+12,-1.3519886,-9.490714,1.2479548,9.667415197,-1.662059729,-9.598959846,0.494421862,10.46083275
45:34.3,1.42E+12,-0.83316743,-9.665251,1.1529025,9.769361752,-1.646665742,-9.528402566,0.56965242,10.38534555
45:34.4,1.42E+12,-0.755479,-9.696985,0.8466394,9.763148308,-1.644998211,-9.482591826,0.619486788,10.33803016
45:34.4,1.42E+12,-0.92657316,-9.850716,0.830473,9.928989321,-1.659458141,-9.439439586,0.60476041,10.29437352
45:34.4,1.42E+12,-1.6048127,-9.903107,0.44128236,10.04199593,-1.697841321,-9.399403846,0.530951897,10.24310526
45:34.4,1.42E+12,-2.2254221,-9.544751,-0.3954776,9.808729668,-1.759719643,-9.359523766,0.388885325,10.17177852
45:34.4,1.42E+12,-2.2243743,-8.996142,-1.2196637,9.346977664,-1.817077366,-9.327583186,0.230397899,10.10765435
45:34.4,1.42E+12,-0.98959213,-8.950637,-0.3608995,9.012404992,-1.826277234,-9.290184946,0.159319709,10.06201746
45:34.4,1.42E+12,0.4459227,-9.6598625,1.2181668,9.74657483,-1.80312937,-9.263702016,0.201394215,10.0360971
45:34.4,1.42E+12,0.9906399,-10.069111,1.8161732,10.27943816,-1.765811973,-9.255546976,0.275786515,10.02800032
45:34.4,1.42E+12,-0.17304017,-10.874736,0.4155359,10.88404778,-1.737772283,-9.265303696,0.267754219,10.03493391
45:34.5,1.42E+12,-2.3291564,-10.206974,-0.9014255,10.50808525,-1.754648187,-9.259872976,0.143003641,10.00804755
45:34.5,1.42E+12,-1.9486477,-10.191707,-0.468376,10.38689056,-1.761728463,-9.280799476,0.036598911,10.00628937
45:34.5,1.42E+12,-0.565524,-11.588751,-0.8614586,11.63447799,-1.751331083,-9.339845696,-0.012903149,10.06192524
45:34.5,1.42E+12,1.1177257,-13.110038,-2.5463548,13.40172861,-1.699383109,-9.435981796,-0.104608449,10.15641989
45:34.5,1.42E+12,2.1647983,-15.164216,-2.1640499,15.47006498,-1.616159175,-9.574650436,-0.201672607,10.28809895
45:34.6,1.42E+12,1.6958236,-14.973662,-0.9403446,15.09869595,-1.534282435,-9.72066879,-0.275840375,10.42003342
45:34.6,1.42E+12,-0.8628058,-12.967384,-2.2037172,13.18157241,-1.494342491,-9.84152447,-0.367692367,10.526394
45:34.6,1.42E+12,-1.608555,-11.984379,-1.0380913,12.13632658,-1.457049041,-9.949617698,-0.412524139,10.61838314
45:34.7,1.42E+12,-2.122137,-13.010794,-1.1091934,13.22930595,-1.426491583,-10.0826311,-0.434585263,10.73630804
45:34.7,1.42E+12,-1.5790663,-12.73866,0.23725662,12.83834879,-1.384752381,-10.21709349,-0.414802402,10.85138265
45:34.7,1.42E+12,-0.15762222,-12.774435,3.3211436,13.20003898,-1.308997913,-10.35475023,-0.314564848,10.96959556
45:34.7,1.42E+12,0.5134323,-13.617033,3.6063006,14.09583642,-1.231249589,-10.49475707,-0.198879416,11.09671187
45:34.7,1.42E+12,0.1830693,-13.892161,0.55923706,13.90461786,-1.175574367,-10.60447291,-0.136674775,11.19156863
45:34.7,1.42E+12,0.46867537,-13.405374,-0.2811154,13.41650978,-1.136999584,-10.66040261,-0.084837571,11.23814734
45:34.7,1.42E+12,1.0774595,-14.795083,1.6964222,14.93094934,-1.120006918,-10.71438633,0.009412433,11.28739965
45:34.8,1.42E+12,-0.5545967,-13.735886,0.85562074,13.77367883,-1.151076308,-10.74738671,0.112901228,11.30541012
45:34.8,1.42E+12,-2.0414548,-10.820549,-0.4830455,11.02203027,-1.213544406,-10.72454123,0.236514178,11.25112573
45:34.8,1.42E+12,-2.8325596,-9.24268,-0.8595126,9.70511666,-1.261453777,-10.70008211,0.349095066,11.19879596
45:34.8,1.42E+12,-2.251468,-9.197623,-0.25177643,9.472527032,-1.262342927,-10.70951849,0.390193597,11.20241708
45:34.8,1.42E+12,-1.6555573,-9.075028,-0.43110353,9.234871598,-1.236225237,-10.73912691,0.378437045,11.22405286
45:34.9,1.42E+12,-1.8139279,-8.40607,-0.7728429,8.634212959,-1.220945015,-10.78535978,0.357699169,11.26428709
45:34.9,1.42E+12,-2.0272343,-7.533983,-0.950224,7.85961223,-1.210463809,-10.7904941,0.321989427,11.26634664
45:34.9,1.42E+12,-2.387086,-6.590046,-1.861978,7.252161604,-1.184585625,-10.61002638,0.221404593,11.0843666
45:34.9,1.42E+12,-2.7696905,-5.205126,-2.76984,6.514333102,-1.149528529,-10.3475053,0.184242873,10.83659672
45:35.0,1.42E+12,-2.8536658,-2.9641361,-2.9490175,5.062234243,-1.168125857,-10.15506548,0.222099143,10.66540431
45:35.0,1.42E+12,-2.5732987,-1.4802718,-3.890859,4.894063195,-1.140550197,-10.09659408,0.051950963,10.6131852
45:35.0,1.42E+12,-1.547033,-1.848955,-3.7044964,4.419868694,-1.099409749,-10.06717725,-0.153427951,10.53775064
45:35.0,1.42E+12,-0.21121079,-3.5365458,-3.658991,5.093130799,-1.047928805,-10.02067196,-0.315992891,10.48201538
45:35.0,1.42E+12,0.330363,-4.643194,-4.641997,6.573927774,-1.006210559,-9.922317484,-0.467537755,10.41040895
45:35.0,1.42E+12,-0.547711,-4.811594,-5.6827826,7.466287045,-1.005028018,-9.739107464,-0.610200089,10.27852931
45:35.1,1.42E+12,-1.7315991,-5.4155884,-7.1223392,9.113437817,-1.070061778,-9.565869712,-0.726840537,10.17643849
45:35.1,1.42E+12,-2.194287,-6.2839327,-8.307425,10.64499957,-1.157432092,-9.471628686,-0.798873751,10.1462063
45:35.1,1.42E+12,-2.07259,-7.932155,-7.846982,11.34856109,-1.195881137,-9.453489406,-0.906877151,10.1897224
45:35.1,1.42E+12,-2.918032,-9.717492,-5.469027,11.52626643,-1.209116617,-9.485723366,-1.045429029,10.24945895
45:35.1,1.42E+12,-2.3177803,-10.210118,-4.9353867,11.57482859,-1.193031069,-9.526076446,-1.207440123,10.29453449
45:35.2,1.42E+12,-4.2604403,-8.265062,-3.4875975,9.931059245,-1.226184125,-9.512751146,-1.310548709,10.30413212
45:35.2,1.42E+12,-4.740941,-8.356672,-4.781058,10.73168226,-1.278667985,-9.497494866,-1.401837878,10.33147715
45:35.2,1.42E+12,-4.6990285,-9.146879,-5.7040386,11.75935035,-1.328029343,-9.497030826,-1.515628254,10.3779127
45:35.2,1.42E+12,-4.4421625,-10.120754,-4.657265,11.9938562,-1.374268189,-9.513260086,-1.629292884,10.42569261
45:35.2,1.42E+12,-4.0728803,-10.312056,-3.378175,11.59046674,-1.428686023,-9.529686926,-1.72181548,10.46415364
45:35.3,1.42E+12,-2.628085,-9.903706,-2.8524683,10.63610825,-1.464584374,-9.534456026,-1.801922896,10.48148857
45:35.3,1.42E+12,-2.0085232,-9.799821,-2.066902,10.21482946,-1.489645258,-9.536512746,-1.860193724,10.4905222
45:35.3,1.42E+12,-1.6314573,-10.108779,-1.3245955,10.32490286,-1.503742941,-9.541674006,-1.903295094,10.49844047
45:35.3,1.42E+12,-0.5968089,-10.181377,-0.8147557,10.23134621,-1.483582865,-9.547239406,-1.928415855,10.50222747
45:35.4,1.42E+12,0.4805008,-10.167007,-0.1936972,10.18019798,-1.429464407,-9.559684526,-1.924380247,10.50965684
45:35.4,1.42E+12,0.6863228,-9.77138,-0.23426285,9.79825419,-1.371250465,-9.575189286,-1.90467223,10.51868237
45:35.4,1.42E+12,0.49067962,-9.945767,-0.357307,9.964271975,-1.34164503,-9.595091886,-1.90460038,10.53771971
45:35.4,1.42E+12,0.66252226,-10.06013,-0.51567763,10.09510152,-1.337313039,-9.603097236,-1.939277268,10.54469024
45:35.4,1.42E+12,0.48094985,-9.431587,-0.23905289,9.446866802,-1.34750684,-9.590346756,-1.98038179,10.52803882
45:35.4,1.42E+12,0.34338593,-9.123827,-0.726589,9.159151958,-1.337178318,-9.555328576,-2.003224288,10.4935409
45:35.5,1.42E+12,-0.0477507,-9.337133,-0.75562865,9.367780284,-1.291550204,-9.537931756,-2.000308351,10.4707348
45:35.5,1.42E+12,-0.2719844,-9.718241,-1.0600955,9.779672086,-1.258016938,-9.528462436,-2.012142741,10.45859043
45:35.5,1.42E+12,0.4805008,-9.623637,-0.343835,9.641757756,-1.237096442,-9.489160156,-2.001790269,10.41873603
45:35.5,1.42E+12,1.3458513,-9.69429,0.12049942,9.788007685,-1.23253393,-9.420845196,-1.948453185,10.34646161
45:35.5,1.42E+12,1.8658699,-10.018966,-0.748743,10.2186969,-1.238512498,-9.317940196,-1.920147047,10.24143425
45:35.6,1.42E+12,1.1765534,-9.956844,-1.6884887,10.16730124,-1.248897902,-9.217603836,-1.935109929,10.14280635
45:35.6,1.42E+12,-0.042960662,-9.65118,-1.2106824,9.72691487,-1.232500999,-9.151279756,-1.915249233,10.0737132
45:35.6,1.42E+12,-1.2820839,-9.267229,-0.7414082,9.384825975,-1.225971577,-9.096936756,-1.909315571,10.01868319
45:35.7,1.42E+12,-1.4000386,-9.377549,-0.45759842,9.492519668,-1.211529609,-9.024271856,-1.896283671,9.943947463
45:35.7,1.42E+12,-1.7765057,-9.613608,-1.253194,9.85636477,-1.215478397,-8.961770816,-1.926092684,9.884307783
45:35.7,1.42E+12,-2.0218456,-9.61256,-0.66401917,9.845308062,-1.252762864,-8.898533316,-2.005795939,9.817213165
45:35.7,1.42E+12,-2.0589683,-8.842711,0.34518218,9.085815265,-1.304210876,-8.803046876,-2.071018307,9.717012741
45:35.7,1.42E+12,-0.48903304,-9.041498,0.23920257,9.057872668,-1.317652923,-8.706033616,-2.077418997,9.620077838
45:35.7,1.42E+12,0.83661026,-9.178313,-0.6912625,9.242250272,-1.310294225,-8.621492396,-2.085621939,9.536592647
45:35.7,1.42E+12,0.7779323,-8.760982,-0.75622743,8.827902593,-1.316284769,-8.500810376,-2.134674932,9.414531713
45:35.8,1.42E+12,-0.38095778,-8.729846,-0.41388932,8.747950868,-1.312811991,-8.400689576,-2.160065133,9.314017153
45:35.8,1.42E+12,-1.1599379,-9.381291,-0.11511063,9.453429389,-1.295181653,-8.371904416,-2.152706436,9.282645136
45:35.8,1.42E+12,-1.07716,-10.032138,0.20612137,10.0919053,-1.260073661,-8.387693576,-2.131393756,9.290380908
45:35.8,1.42E+12,-1.1954141,-10.502011,0.8946895,10.60762552,-1.238952583,-8.413781336,-2.108464438,9.313082878
45:35.8,1.42E+12,-0.6569838,-11.524086,1.565295,11.64844772,-1.218981113,-8.462762496,-2.068536467,9.361354401
45:35.9,1.42E+12,0.12169693,-12.798086,3.181484,13.18816348,-1.180268616,-8.550602816,-1.989449929,9.452433411
45:35.9,1.42E+12,-0.6135741,-13.017231,2.254911,13.22533174,-1.151995412,-8.660267776,-1.925347229,9.559747801
45:35.9,1.42E+12,-1.9258951,-13.5080595,1.3823754,13.71450711,-1.142771594,-8.798628046,-1.860460161,9.688994711
45:36.0,1.42E+12,-2.6542804,-14.146183,0.23396347,14.39494484,-1.140463392,-8.977449186,-1.800384092,9.846606946
45:36.0,1.42E+12,-2.482737,-14.228961,-1.1749067,14.49164311,-1.133044816,-9.202745684,-1.764901876,10.03519512
45:36.0,1.42E+12,-2.476001,-14.084661,-2.2324576,14.47384273,-1.131098862,-9.454833468,-1.731733848,10.22679071
45:36.0,1.42E+12,-2.3671775,-13.510755,-3.0557456,14.05281506,-1.147501752,-9.688069468,-1.718758832,10.41944964
45:36.0,1.42E+12,-1.4037808,-13.593233,-3.6167789,14.13604165,-1.171353153,-9.889203212,-1.71791459,10.60030786
45:36.0,1.42E+12,-0.8140073,-13.128899,-5.1159115,14.11393451,-1.194240559,-10.05891731,-1.72739288,10.75110799
45:36.0,1.42E+12,-0.5215155,-12.854219,-8.407866,15.36864129,-1.193716649,-10.21976981,-1.781894548,10.90915508
45:36.1,1.42E+12,-1.4518309,-14.991325,-8.070168,17.08728328,-1.188121285,-10.41128454,-1.800851124,11.06863199
45:36.1,1.42E+12,-1.3971945,-15.983013,1.3138179,16.09766985,-1.172179435,-10.60526615,-1.608426266,11.17768539
45:36.1,1.42E+12,-2.7542725,-15.195052,6.546187,16.77284074,-1.185813085,-10.75052409,-1.320562886,11.28617099
45:36.1,1.42E+12,-6.615194,-10.774744,6.589447,14.25751422,-1.259756325,-10.77166913,-1.079393406,11.34079594
45:36.1,1.42E+12,-6.2743526,-8.894803,5.6142254,12.24763438,-1.338887771,-10.74536283,-0.868401164,11.35425206
45:36.2,1.42E+12,-3.238665,-10.700648,-0.43873763,11.1886241,-1.318452265,-10.79407455,-0.807423966,11.37940335
45:36.2,1.42E+12,1.6299605,-12.985197,-7.104526,14.8911518,-1.191034235,-10.88664505,-0.853893326,11.46259275
45:36.2,1.42E+12,1.7055533,-9.632619,-3.206033,10.29441152,-1.062942599,-10.89635985,-0.803933214,11.43329397
45:36.2,1.42E+12,-0.9927356,-7.175778,-0.11496094,7.245034844,-0.993954061,-10.83746033,-0.713087133,11.33831754
45:36.3,1.42E+12,-1.8196161,-6.8750534,1.1771522,7.208540026,-0.948888777,-10.76872028,-0.621980589,11.25067901
45:36.3,1.42E+12,-0.9134006,-6.302494,0.4631369,6.385156777,-0.914595089,-10.69669604,-0.555668485,11.16565998
45:36.3,1.42E+12,-0.5388794,-5.2004857,-0.6661148,5.270593083,-0.885202213,-10.60470933,-0.527652741,11.06677525
45:36.3,1.42E+12,-1.1352392,-3.6757562,-1.5645465,4.153041949,-0.875277851,-10.47604888,-0.532451761,10.94333803
45:36.3,1.42E+12,-1.9483484,-2.55354,-1.3025912,3.466031139,-0.902308641,-10.32349214,-0.542208471,10.80803173
45:36.4,1.42E+12,-2.874622,-1.4097683,-1.3421091,3.471621399,-0.969411097,-10.14834736,-0.565176709,10.6738602
45:36.4,1.42E+12,-3.3293765,-0.7259903,-2.1691391,4.039427463,-1.049725083,-9.967439568,-0.603874234,10.55868366
45:36.4,1.42E+12,-2.7399023,-0.93061477,-4.611311,5.444014842,-1.114336721,-9.787136523,-0.688954314,10.46827852
45:36.4,1.42E+12,-2.1805155,-1.7515078,-6.0646386,6.678493001,-1.171197476,-9.620964079,-0.799933533,10.39994635
45:36.4,1.42E+12,-0.7551796,-2.464625,-4.7184877,5.37669032,-1.195920065,-9.481624839,-0.88952223,10.31854282
45:36.4,1.42E+12,0.70548296,-2.8816576,-4.2915754,5.217209613,-1.188678125,-9.356781451,-0.960821958,10.23970398
45:36.5,1.42E+12,0.98510146,-3.5982175,-6.4182034,7.423673548,-1.168021081,-9.242003141,-1.074073453,10.20082184
45:36.5,1.42E+12,1.2379258,-5.450915,-13.703403,14.79960095,-1.137822877,-9.156656621,-1.326939603,10.30122042
45:36.5,1.42E+12,0.03876938,-6.855294,-11.618838,13.49051353,-1.146657506,-9.101289761,-1.552439663,10.37819553
45:36.5,1.42E+12,-4.971462,-9.053773,-5.479356,11.69228729,-1.273003772,-9.088479421,-1.664436771,10.41628113
45:36.5,1.42E+12,-4.6863046,-10.700199,-3.7425175,12.26630126,-1.404047262,-9.102104081,-1.724312261,10.45723321
45:36.6,1.42E+12,-4.9755034,-8.073312,-6.2277994,11.34546104,-1.527088398,-9.064433441,-1.815098475,10.48079641
45:36.6,1.42E+12,-3.2506402,-7.6929526,-5.4254675,9.959110352,-1.591241989,-9.025268893,-1.899394177,10.48544032
45:36.7,1.42E+12,-3.7256026,-8.667127,-4.595294,10.49361387,-1.640112363,-9.013266853,-1.976471893,10.50761608
45:36.7,1.42E+12,-4.8177314,-10.243798,-4.095184,12.03812549,-1.708466219,-9.030591833,-2.049223605,10.55852819
45:36.7,1.42E+12,-3.8378692,-10.620864,-3.778293,11.90829501,-1.749693489,-9.050736953,-2.099725585,10.5995668
45:36.7,1.42E+12,-2.7613077,-10.326576,-2.8442354,11.06131399,-1.764482731,-9.065017273,-2.143329909,10.62388692
45:36.7,1.42E+12,-2.49576,-9.79084,-1.812431,10.26519712,-1.773218565,-9.083979853,-2.186482173,10.64747455
45:36.7,1.42E+12,-2.2709277,-9.621392,-1.278192,9.968052539,-1.808856458,-9.095577733,-2.216830064,10.66567815
45:36.7,1.42E+12,-1.6170872,-9.904154,-0.669857,10.05763123,-1.857930407,-9.110094553,-2.216401954,10.68198577
45:36.8,1.42E+12,-0.31299913,-10.201137,0.3915857,10.21344721,-1.879749036,-9.138897653,-2.193445692,10.70969666
45:36.8,1.42E+12,0.909359,-10.514435,0.69216067,10.57635871,-1.8539427,-9.174589433,-2.171324692,10.74626482
45:36.8,1.42E+12,1.4850618,-10.711426,0.27557695,10.81739332,-1.801042706,-9.201192133,-2.16351094,10.7735441
45:36.8,1.42E+12,1.8649718,-11.020832,0.20941453,11.17947728,-1.74220007,-9.220966013,-2.163445077,10.79529554
45:36.8,1.42E+12,1.42339,-10.585088,-0.02454895,10.68038996,-1.689823988,-9.222627553,-2.181829846,10.79675083
45:36.8,1.42E+12,0.8490344,-9.426497,-0.44667113,9.475189719,-1.659703624,-9.180675773,-2.222069169,10.75328567
45:36.9,1.42E+12,0.4125421,-8.804391,-0.37467086,8.822010549,-1.653886721,-9.100801873,-2.293192266,10.66596261
45:36.9,1.42E+12,-0.07274872,-8.980425,-1.4413527,9.095648584,-1.643070213,-9.020065753,-2.36711754,10.58336894
45:36.9,1.42E+12,0.22183868,-9.156159,-0.44113266,9.169463346,-1.600115537,-8.933027743,-2.403587701,10.49246807
45:37.0,1.42E+12,0.9466315,-9.741742,0.4514612,9.798033762,-1.528097299,-8.844938923,-2.399237746,10.40052985
45:37.0,1.42E+12,0.6397696,-9.640403,-1.2961546,9.748163514,-1.465647167,-8.753167763,-2.401662704,10.30566026
45:37.0,1.42E+12,-0.14160553,-8.893307,-2.2156925,9.166256312,-1.418959258,-8.649340683,-2.401327402,10.19950853
45:37.0,1.42E+12,-1.1280541,-9.299262,-2.4439678,9.680999866,-1.39417679,-8.565110823,-2.389091846,10.11207222
45:37.0,1.42E+12,-1.3474978,-9.305249,-1.1008109,9.466530194,-1.39305113,-8.479351143,-2.338772486,10.01868199
45:37.0,1.42E+12,-2.2902374,-8.725954,-0.7966434,9.056605394,-1.422575732,-8.391292243,-2.252387124,9.917535412
45:37.0,1.42E+12,-2.6267376,-8.7897215,-1.103655,9.23996801,-1.464680174,-8.310002293,-2.106302904,9.794961946
45:37.1,1.42E+12,-1.4329702,-9.319171,-0.34338593,9.434949158,-1.46430296,-8.196559213,-1.951767263,9.641915263
45:37.1,1.42E+12,0.37107834,-9.337133,0.40685394,9.35335672,-1.428937503,-8.063641613,-1.969906542,9.507029001
45:37.1,1.42E+12,1.7780026,-9.355994,-1.9473006,9.720488496,-1.338292001,-7.946860453,-2.139776294,9.365981956
45:37.1,1.42E+12,1.7202228,-9.237291,-1.9752923,9.6014838,-1.171583665,-7.916111393,-2.31107108,9.272861348
45:37.2,1.42E+12,0.17124389,-9.051527,-0.49397278,9.066613183,-1.042671735,-7.919245873,-2.433235044,9.209240924
45:37.2,1.42E+12,-0.47855484,-10.3689375,0.6724017,10.4017308,-0.987469532,-7.912611663,-2.411012257,9.193503058
45:37.2,1.42E+12,-0.38455033,-12.139156,1.5067667,12.23835501,-1.027759749,-7.895690843,-2.238786403,9.140447122
45:37.2,1.42E+12,-0.27378067,-12.640464,1.0286609,12.68520513,-1.067346428,-7.955847743,-2.154092525,9.188262994
45:37.3,1.42E+12,-1.4395565,-12.191098,0.68587375,12.29494271,-1.076282846,-8.056154143,-2.138075831,9.289261151
45:37.3,1.42E+12,-2.272724,-13.040731,1.923051,13.37625002,-1.085345004,-8.179467695,-2.123157855,9.412615351
45:37.3,1.42E+12,-3.0609846,-14.180312,1.2784914,14.56315266,-1.128296684,-8.337024055,-2.106850765,9.576175269
45:37.3,1.42E+12,-3.045866,-13.900245,-0.28605515,14.23291742,-1.178436416,-8.511019241,-2.099249572,9.755421756
45:37.3,1.42E+12,-2.8340566,-13.432318,-0.8909473,13.75691938,-1.212412764,-8.706150477,-2.085777588,9.947499304
45:37.3,1.42E+12,-2.8163934,-12.882361,-0.9996213,13.22446745,-1.229773664,-8.912726897,-2.07971819,10.14266803
45:37.3,1.42E+12,-2.7710376,-12.128379,-1.3924044,12.51858684,-1.227701976,-9.127099111,-2.080724096,10.32360734
45:37.4,1.42E+12,-2.3020627,-12.365336,-2.2378464,12.77532714,-1.2071557,-9.359886025,-2.082098242,10.49832533
45:37.4,1.42E+12,-1.5790663,-12.503499,-4.236191,13.29572306,-1.18393898,-9.59134371,-2.074595842,10.6553595
45:37.4,1.42E+12,-1.027164,-12.173136,-7.046447,14.10293307,-1.16087195,-9.799776274,-2.09423201,10.8038483
45:37.4,1.42E+12,-1.1838881,-13.04163,-7.803572,15.24406245,-1.16944612,-10.01131637,-2.155933696,11.00119574
45:37.5,1.42E+12,-1.4539266,-13.501623,-2.513124,13.81026859,-1.212634311,-10.22371568,-2.120364668,11.17305692
45:37.5,1.42E+12,-2.009122,-13.519885,5.3639455,14.68317993,-1.272518781,-10.42214903,-1.88472169,11.31824705
45:37.5,1.42E+12,-6.386619,-10.618917,3.7501516,12.94658015,-1.425009677,-10.52550907,-1.535650598,11.28118663
45:37.5,1.42E+12,-7.208111,-8.934919,2.397265,11.72759657,-1.569947284,-10.56710157,-1.255328538,11.24592829
45:37.5,1.42E+12,-5.1439033,-9.587712,1.0547067,10.93143947,-1.57339611,-10.57778035,-1.124647284,11.23071134
45:37.5,1.42E+12,0.06197113,-12.693304,-3.0778995,13.06128907,-1.478430596,-10.61764245,-1.111354924,11.24661109
45:37.6,1.42E+12,2.0727396,-10.793755,-4.3045983,11.80385373,-1.337465736,-10.67205131,-1.072890902,11.25577895
45:37.6,1.42E+12,0.28979737,-8.506361,-1.9422112,8.730082721,-1.266656984,-10.68831948,-1.003225776,11.23119839
45:37.6,1.42E+12,-1.0999128,-7.8761716,-1.1044034,8.02892235,-1.214143188,-10.67250037,-0.933407964,11.18190456
45:37.6,1.42E+12,-1.2496015,-7.018455,-0.26464966,7.133740529,-1.14278059,-10.60799351,-0.856797278,11.08381686
45:37.6,1.42E+12,-0.9301657,-6.1623855,-0.9976753,6.311541752,-1.08462652,-10.51882394,-0.801184924,10.9718818
45:37.7,1.42E+12,-1.2028985,-4.716991,-1.819167,5.19676221,-1.053458336,-10.40663224,-0.780683556,10.85459076
45:37.7,1.42E+12,-2.3119423,-3.3006363,-2.3555017,4.667725939,-1.049781982,-10.27682817,-0.79154497,10.74264134
45:37.7,1.42E+12,-3.2630644,-1.8139279,-2.347718,4.4101818,-1.069624716,-10.12067889,-0.81293549,10.63148393
45:37.7,1.42E+12,-2.7925928,-0.8955876,-2.1049228,3.609896354,-1.093134828,-9.940507558,-0.841636806,10.50252923
45:37.8,1.42E+12,-2.1429436,-0.59890455,-3.5480719,4.188043474,-1.129733718,-9.748462909,-0.920429958,10.38202115
45:37.8,1.42E+12,-1.8303937,-0.8789722,-5.263205,5.641299504,-1.184528772,-9.555753653,-1.039537271,10.28331997
45:37.8,1.42E+12,-1.4088702,-1.2816348,-5.0407677,5.388584416,-1.242407412,-9.367157829,-1.145864164,10.17474379
45:37.8,1.42E+12,-0.052091673,-1.919159,-4.96742,5.325518404,-1.280748681,-9.185124369,-1.249400855,10.05766461
45:37.8,1.42E+12,1.5007792,-3.117118,-5.194049,6.240745777,-1.279200897,-9.035764969,-1.352790856,9.96887173
45:37.8,1.42E+12,0.9134006,-3.8034408,-6.7927246,7.838467329,-1.277913573,-8.923303845,-1.479711925,9.936137282
45:37.9,1.42E+12,0.27662477,-5.6523957,-13.768968,14.88659055,-1.28063192,-8.860263939,-1.747597868,10.05742888
45:38.0,1.42E+12,-3.1958542,-8.6015625,-10.922337,14.26526575,-1.343094029,-8.852686689,-1.937217554,10.16082123
45:38.0,1.42E+12,-5.470374,-10.318193,-8.454569,14.41769175,-1.456938283,-8.875927369,-2.097486281,10.26578579
45:38.0,1.42E+12,-4.267775,-9.587263,-3.7356317,11.13932042,-1.561226413,-8.872837789,-2.181228139,10.29261153
45:38.0,1.42E+12,-4.55383,-5.4640875,-5.3437376,8.896580883,-1.665098405,-8.789311479,-2.262179799,10.27557987
45:38.0,1.42E+12,-2.176923,-6.36222,-5.4033136,8.626275844,-1.705804754,-8.738689739,-2.325932221,10.26478026
45:38.0,1.42E+12,-3.3970358,-8.621022,-5.041666,10.54894633,-1.751184388,-8.725124939,-2.377886185,10.28213919
45:38.0,1.42E+12,-4.003874,-11.653117,-4.3743534,13.07520977,-1.804311912,-8.772082299,-2.443357035,10.35431279
45:38.0,1.42E+12,-3.131039,-11.816727,-4.311185,12.96243643,-1.821127944,-8.833897759,-2.513647867,10.43242941
45:38.1,1.42E+12,-2.4745042,-10.4428835,-3.3902998,11.2548265,-1.818083276,-8.866960999,-2.559380763,10.47272658
45:38.1,1.42E+12,-2.5975485,-9.232351,-2.0704944,9.811753679,-1.841374842,-8.865224599,-2.593922932,10.48026267
45:38.1,1.42E+12,-2.5945547,-8.771909,-1.5325131,9.275057843,-1.900687503,-8.853920119,-2.632710273,10.47869669
45:38.1,1.42E+12,-2.1647983,-9.205707,-0.9630972,9.505732442,-1.979543521,-8.850914379,-2.613026205,10.47440157
45:38.1,1.42E+12,-0.96579164,-10.04097,0.064815216,10.08751868,-2.03326381,-8.866987959,-2.572224054,10.48412227
45:38.1,1.42E+12,0.1565744,-10.653196,0.4394861,10.66340699,-2.0335572,-8.899021339,-2.553554877,10.51605814
45:38.2,1.42E+12,0.3570076,-11.393856,0.24833359,11.40215236,-2.016845951,-8.919519709,-2.562036239,10.53606657
45:38.2,1.42E+12,1.0347981,-11.176807,0.9479787,11.2645677,-1.988458982,-8.900272729,-2.573211999,10.51659083
45:38.3,1.42E+12,1.2240046,-10.129436,0.09220825,10.2035368,-1.958503277,-8.850052169,-2.591941052,10.46695746
45:38.3,1.42E+12,0.5474117,-8.976084,-0.62165725,9.014222167,-1.918763913,-8.785751889,-2.618091672,10.40134305
45:38.3,1.42E+12,0.086969145,-8.768765,-0.31299913,8.774780437,-1.87157005,-8.700312569,-2.662812675,10.30931366
45:38.3,1.42E+12,0.4432283,-9.304202,-0.60743684,9.334538323,-1.801485792,-8.602790369,-2.700531239,10.20474137
45:38.3,1.42E+12,0.96040285,-9.451944,-1.1549982,9.570561105,-1.721360415,-8.513824349,-2.7179101,10.11149424
45:38.3,1.42E+12,1.5819104,-9.411978,-0.6478528,9.565954403,-1.633041075,-8.433417549,-2.71304821,10.02767494
45:38.3,1.42E+12,1.2566369,-9.563014,-1.0177336,9.698770785,-1.551580469,-8.367030609,-2.713410456,9.957161011
45:38.3,1.42E+12,0.5093907,-9.248518,-1.6828007,9.414158607,-1.485971903,-8.309433389,-2.719218382,9.895072447
45:38.4,1.42E+12,-0.7450008,-9.48293,-1.991309,9.718348579,-1.454830665,-8.251785269,-2.714287634,9.833932876
45:38.4,1.42E+12,-1.1355386,-9.971214,-1.6584014,10.17176739,-1.445960111,-8.201139569,-2.662731842,9.771453762
45:38.4,1.42E+12,-1.5072157,-9.36258,-1.4171032,9.588419312,-1.455561145,-8.144928449,-2.550144966,9.681163487
45:38.4,1.42E+12,-2.1712348,-8.796009,-1.2789404,9.149848274,-1.475308079,-8.060016029,-2.419652334,9.559279203
45:38.5,1.42E+12,-1.5328125,-8.626711,-0.97567105,8.815984961,-1.476885797,-7.962517789,-2.388903275,9.459393531
45:38.5,1.42E+12,0.35311568,-9.072783,0.14968872,9.080885902,-1.429641043,-7.873575749,-2.493188411,9.34734765
45:38.5,1.42E+12,1.6233742,-8.278685,-0.14504836,8.437594927,-1.269441179,-7.826771109,-2.57109241,9.257167946
45:38.5,1.42E+12,1.7796493,-8.604108,-2.0454965,9.021190722,-1.089685973,-7.820154889,-2.65994764,9.203039829
45:38.5,1.42E+12,1.1365864,-9.282946,-2.5417144,9.691502834,-0.964076179,-7.814059569,-2.731876062,9.178241096
45:38.6,1.42E+12,-0.23830444,-10.102941,-0.27348128,10.10945092,-0.970081691,-7.762252309,-2.675787698,9.119204333
45:38.6,1.42E+12,-1.5637981,-11.269016,1.0060579,11.42139828,-1.042812445,-7.771757529,-2.569574574,9.111555224
45:38.6,1.42E+12,-1.1720626,-12.703333,2.5227041,13.00432374,-1.072049644,-7.855696969,-2.480276268,9.197040045
45:38.6,1.42E+12,-1.0340496,-12.802876,1.8763481,12.98089267,-1.07073238,-7.954231057,-2.420661238,9.296079451
45:38.6,1.42E+12,-1.6105009,-12.253967,1.4750327,12.44705354,-1.077950368,-8.058941297,-2.385867591,9.402345711
45:38.6,1.42E+12,-2.833907,-13.189971,2.070195,13.64888535,-1.116025194,-8.199493007,-2.324510185,9.549092583
45:38.7,1.42E+12,-2.699187,-14.28704,0.4978647,14.54829858,-1.145950964,-8.390893987,-2.278169551,9.736123311
45:38.7,1.42E+12,-2.1915925,-14.241235,-1.0764116,14.44903159,-1.143543968,-8.609705961,-2.252587749,9.931749424
45:38.7,1.42E+12,-2.5950036,-14.050083,-1.5325131,14.36967197,-1.130182752,-8.854429063,-2.236283651,10.13093923
45:38.7,1.42E+12,-2.2168899,-13.529316,-2.562671,13.94719595,-1.118668694,-9.107103631,-2.245438615,10.33768522
45:38.7,1.42E+12,-1.7247134,-13.51255,-4.2869353,14.28080733,-1.11030409,-9.36537654,-2.260215883,10.5395405
45:38.8,1.42E+12,-1.332978,-13.761034,-5.929769,15.04343869,-1.100355776,-9.623017776,-2.273547163,10.72758328
45:38.8,1.42E+12,-0.94528425,-13.130844,-7.8040214,15.30409672,-1.091084057,-9.86000196,-2.328812237,10.92589353
45:38.8,1.42E+12,-1.4271322,-13.78678,-7.9602966,15.98368953,-1.118584868,-10.09735438,-2.388669769,11.13905695
45:38.8,1.42E+12,-1.4353652,-13.555661,1.723965,13.74002452,-1.177307756,-10.30612524,-2.250309489,11.28904252
45:38.9,1.42E+12,-2.600542,-14.7037735,6.690038,16.36216313,-1.247586608,-10.52413189,-1.980654237,11.45951644
45:38.9,1.42E+12,-6.650969,-10.968591,4.557273,13.61301268,-1.386138483,-10.6304558,-1.614129417,11.43404488
45:38.9,1.42E+12,-6.4345193,-8.478818,2.5259972,10.93956376,-1.450911785,-10.62800091,-1.345162733,11.36753084
45:38.9,1.42E+12,-0.9689351,-11.444152,-1.2957056,11.55795411,-1.360883007,-10.65052009,-1.201985465,11.31033609
45:38.9,1.42E+12,3.7592826,-14.168487,-5.267097,15.57628134,-1.200341855,-10.74214457,-1.232614771,11.39907531
45:38.9,1.42E+12,2.6008415,-9.537267,-0.6047424,9.904016948,-1.057248425,-10.82360816,-1.137834867,11.41922403
45:39.0,1.42E+12,-0.32078293,-7.5625734,-0.13352233,7.570551257,-1.020125624,-10.84761523,-1.032439041,11.39810954
45:39.0,1.42E+12,-1.3346246,-7.1178484,0.99108905,7.309394378,-0.9788774,-10.81755176,-0.91178394,11.3333185
45:39.0,1.42E+12,-1.0527607,-6.314469,0.26854157,6.4072567,-0.919855134,-10.7107788,-0.818926041,11.19995944
45:39.0,1.42E+12,-0.93375826,-4.5165577,-0.5641768,4.646449549,-0.875909519,-10.56477541,-0.743985877,11.0336397
45:39.0,1.42E+12,-1.4724879,-2.9813502,-0.85906357,3.43433543,-0.855869193,-10.41554474,-0.693361152,10.87722988
45:39.1,1.42E+12,-2.2728736,-1.4682966,-1.2391232,2.97611754,-0.849375695,-10.26026366,-0.676733728,10.74051715
45:39.1,1.42E+12,-2.579885,-0.007783813,-1.9220031,3.217135856,-0.849082301,-10.08498115,-0.684523528,10.61935872
45:39.1,1.42E+12,-3.0476623,-0.026045837,-3.7509,4.833029556,-0.866739581,-9.901387929,-0.740279584,10.52590466
45:39.1,1.42E+12,-2.700235,-0.89992857,-5.1741405,5.905325596,-0.901428448,-9.7185671,-0.845058699,10.4422608
45:39.2,1.42E+12,-1.5664924,-1.7405804,-4.6199927,5.1795609,-0.935889784,-9.540314788,-0.946248275,10.33258387
45:39.2,1.42E+12,0.15971786,-2.2162912,-4.149072,4.706618206,-0.939835579,-9.356763492,-1.034196386,10.19867319
45:39.2,1.42E+12,1.723516,-2.6828709,-6.877149,7.580467138,-0.926061221,-9.18688477,-1.19069894,10.12499118
45:39.2,1.42E+12,2.2417383,-6.4325733,-14.360986,15.89469436,-0.905706547,-9.112947516,-1.479762825,10.23881433
45:39.2,1.42E+12,-0.99557966,-7.9715233,-9.481133,12.42691617,-0.936566374,-9.092856302,-1.65695234,10.30706821
45:39.3,1.42E+12,-2.9505143,-11.1160345,-6.62178,13.27101081,-0.997316043,-9.139801692,-1.783127958,10.39699282
45:39.3,1.42E+12,-7.081175,-10.499017,-0.984353,12.70202142,-1.147804109,-9.163697992,-1.790666281,10.46434248
45:39.3,1.42E+12,-3.1253507,-8.345146,-6.3921576,10.96672046,-1.22951918,-9.141562032,-1.895409469,10.49226567
45:39.3,1.42E+12,-1.1392808,-8.286169,-5.503156,10.01215678,-1.283943004,-9.119045852,-1.992515533,10.50118971
45:39.3,1.42E+12,-2.9945228,-9.355246,-3.6564465,10.48128788,-1.368966198,-9.114890492,-2.045289791,10.51684006
45:39.3,1.42E+12,-3.9948926,-10.519375,-3.5908828,11.8114714,-1.459051864,-9.140307632,-2.083451433,10.56478631
45:39.4,1.42E+12,-3.2552805,-10.765912,-3.8359232,11.88343465,-1.509257458,-9.165967272,-2.120343717,10.60808803
45:39.4,1.42E+12,-2.7390041,-10.450218,-3.4081128,11.32803745,-1.541326768,-9.175547352,-2.155337945,10.63121344
45:39.4,1.42E+12,-2.4700136,-9.743688,-2.6394613,10.39265024,-1.560582726,-9.183169512,-2.179785107,10.64729805
45:39.4,1.42E+12,-1.9722986,-9.298513,-1.5920892,9.637792994,-1.556604002,-9.193219592,-2.186048083,10.65705695
45:39.4,1.42E+12,-0.9289682,-9.585018,-0.29353958,9.634402808,-1.544527116,-9.212385732,-2.172405454,10.67342531
45:39.5,1.42E+12,0.0981958,-9.773176,0.6340814,9.794216189,-1.549625514,-9.226393592,-2.1627176,10.68769191
45:39.5,1.42E+12,0.50265473,-10.392589,0.79140425,10.43479222,-1.572039903,-9.268671672,-2.143988548,10.72763586
45:39.5,1.42E+12,0.93615323,-10.896291,0.054337006,10.93656678,-1.588909824,-9.314515332,-2.101991878,10.76594338
45:39.6,1.42E+12,1.79851,-10.919493,-0.432301,11.07505529,-1.575671352,-9.347246272,-2.05980361,10.79361443
45:39.6,1.42E+12,1.3977933,-10.155481,-0.8571176,10.28699524,-1.542949398,-9.348297072,-2.071476336,10.79716531
45:39.6,1.42E+12,0.6512956,-9.567504,-0.5278024,9.604160251,-1.498647524,-9.314266832,-2.102153542,10.76082055
45:39.6,1.42E+12,0.7009923,-9.348809,0.001796265,9.375053234,-1.461186426,-9.247176352,-2.152571699,10.68823514
45:39.6,1.42E+12,0.30611342,-8.747958,-0.721799,8.783021598,-1.434383165,-9.166077992,-2.204534641,10.60427772
45:39.6,1.42E+12,0.7021898,-8.933273,-0.70009416,8.988134892,-1.388129351,-9.099664112,-2.248037178,10.53509935
45:39.6,1.42E+12,0.66701293,-9.802067,-1.2292438,9.901336478,-1.318110953,-9.031906032,-2.314025954,10.46014837
45:39.7,1.42E+12,0.26614654,-9.47799,-1.6750168,9.628541411,-1.258804282,-8.935725032,-2.357483584,10.36175323
45:39.7,1.42E+12,-0.53393966,-9.568552,-1.403182,9.685618135,-1.225651225,-8.842271372,-2.364018992,10.26648496
45:39.7,1.42E+12,-1.6322058,-9.259745,-1.6194823,9.540948389,-1.206395269,-8.746464612,-2.365758376,10.16991049
45:39.7,1.42E+12,-1.9520906,-9.142838,-1.0590477,9.408704822,-1.201099283,-8.658735052,-2.33568591,10.07914066
45:39.8,1.42E+12,-1.6771125,-9.060509,-0.95890594,9.264179957,-1.200147265,-8.569694232,-2.269125323,9.978808117
45:39.8,1.42E+12,-1.5262262,-9.264983,-0.2549199,9.393309351,-1.204012229,-8.479773212,-2.155628341,9.86580553
45:39.8,1.42E+12,-0.3104544,-8.757239,0.24414231,8.766140673,-1.191315632,-8.392301112,-1.994665067,9.735046409
45:39.8,1.42E+12,1.3127701,-8.653056,-1.0684781,8.817051033,-1.136517586,-8.289626632,-1.856828697,9.591713639
45:39.8,1.42E+12,1.8878741,-8.88672,-1.3298346,9.181847365,-1.0700528,-8.196247812,-1.917904689,9.500550096
45:39.9,1.42E+12,0.48858398,-8.602461,-0.28785142,8.62113148,-1.00827028,-8.074221562,-2.057462477,9.345729463
45:39.9,1.42E+12,-0.70144135,-9.7603035,0.17124389,9.786974448,-0.889279727,-8.050055812,-2.145183059,9.269208698
45:39.9,1.42E+12,-1.0533595,-11.19013,1.016087,11.28543346,-0.781656531,-8.104282052,-2.175381263,9.276126092
45:39.9,1.42E+12,-0.9523196,-13.314512,1.8035994,13.46982232,-0.781324221,-8.141689252,-2.113395163,9.314363457
45:39.9,1.42E+12,-0.7604187,-14.065052,1.1246114,14.13041667,-0.871718247,-8.139620552,-1.985560995,9.285446163
45:40.0,1.42E+12,-2.7957363,-15.404616,2.255809,15.81793317,-0.979649803,-8.256967532,-1.928349967,9.403724488
45:40.0,1.42E+12,-4.6875024,-15.839162,1.6799566,16.60343295,-1.066984193,-8.422499304,-1.892080389,9.584382122
45:40.0,1.42E+12,-4.20296,-14.317726,-0.36434233,14.92631555,-1.124350901,-8.566496856,-1.919189016,9.736720545
45:40.0,1.42E+12,-3.2245944,-12.581187,-1.33687,13.05647337,-1.167787575,-8.691831216,-1.951297248,9.869704878
45:40.0,1.42E+12,-2.4050486,-12.121044,-2.147584,12.54257085,-1.197213382,-8.843920942,-1.982965392,10.0276273
45:40.0,1.42E+12,-1.7164806,-12.760215,-2.1230352,13.04901034,-1.202093236,-9.039498238,-2.008244824,10.2199208
45:40.1,1.42E+12,-1.2205619,-13.086087,-2.4830365,13.37538465,-1.181047002,-9.271854046,-2.03312309,10.42790614
45:40.1,1.42E+12,-1.4186,-12.950319,-4.299958,13.71906801,-1.157821302,-9.53070475,-2.080682188,10.63794479
45:40.1,1.42E+12,-0.78721297,-12.929064,-7.8788657,15.16103311,-1.112612315,-9.788765113,-2.163241502,10.84450486
45:40.1,1.42E+12,-0.09624985,-12.34887,-6.8979554,14.14516324,-1.060532612,-10.01774394,-2.1977178,11.00930161
45:40.2,1.42E+12,0.2856061,-13.107044,2.7042763,13.38616015,-1.023490642,-10.24507321,-2.05123242,11.1734336
45:40.2,1.42E+12,-4.1420364,-11.267369,4.603078,12.85684241,-1.109525727,-10.42609477,-1.87618942,11.33643808
45:40.2,1.42E+12,-5.586832,-8.694071,3.2260914,10.82622871,-1.255732687,-10.54631877,-1.674124612,11.40135331
45:40.2,1.42E+12,-1.9103274,-9.263487,0.7773335,9.490299761,-1.338774001,-10.60293705,-1.371358222,11.27326542
45:40.2,1.42E+12,2.0561242,-12.314292,-0.83810717,12.51286769,-1.277739924,-10.68979242,-1.198497706,11.27498445
45:40.2,1.42E+12,1.8639239,-9.686208,-2.1309686,10.09147486,-1.18145116,-10.66119589,-1.108681478,11.21139373
45:40.3,1.42E+12,0.66132474,-8.026608,-1.5485299,8.201324969,-1.026601165,-10.61174771,-1.119965016,11.1213798
45:40.3,1.42E+12,-0.97656924,-7.386839,-0.7607181,7.489844452,-0.983625536,-10.59258157,-1.007336226,11.05184228
45:40.3,1.42E+12,-1.8910176,-7.3904314,-0.87373304,7.678400437,-0.998660272,-10.57466682,-0.914747766,11.00516716
45:40.3,1.42E+12,-2.227368,-6.6964746,-2.0353174,7.344825198,-0.983317176,-10.52149139,-0.882325184,10.9424379
45:40.3,1.42E+12,-1.99086,-6.0579023,-2.1932392,6.743293113,-0.943236524,-10.43226194,-0.854372312,10.84107434
45:40.4,1.42E+12,-2.4722588,-4.936285,-2.5641677,6.087193867,-0.92757609,-10.3156694,-0.828937202,10.72514952
45:40.4,1.42E+12,-2.9835956,-3.305576,-2.5414152,5.127130446,-0.93246792,-10.17277656,-0.81160325,10.60113138
45:40.4,1.42E+12,-2.5149202,-2.4349864,-2.4349864,4.264169456,-0.933366052,-10.02660252,-0.807513752,10.47856176
45:40.4,1.42E+12,-1.640289,-2.3059547,-2.5292902,3.795429356,-0.92672586,-9.886751358,-0.826257772,10.36171449
45:40.4,1.42E+12,-1.6762143,-1.402733,-3.6708164,4.27226489,-0.941670782,-9.723105658,-0.893803309,10.25447173
45:40.5,1.42E+12,-2.1929398,-0.9171428,-4.839287,5.391552147,-0.987493494,-9.545984994,-1.003270677,10.16641845
45:40.5,1.42E+12,-1.5507752,-1.8480569,-4.955595,5.511636765,-1.028562093,-9.375094352,-1.118210662,10.06795534
45:40.5,1.42E+12,-0.6442602,-2.371668,-5.103487,5.664402869,-1.060170361,-9.204601892,-1.221367142,9.962512066
45:40.5,1.42E+12,0.1778302,-2.6622138,-5.516329,6.127715034,-1.092583957,-9.039456308,-1.323047702,9.863565261
45:40.5,1.42E+12,0.420775,-2.6728418,-6.7966166,7.315403755,-1.112124323,-8.889803524,-1.441837682,9.804133431
45:40.6,1.42E+12,-0.6725514,-3.8790336,-13.720319,14.27397564,-1.138601263,-8.776034116,-1.705688014,9.897529739
45:40.6,1.42E+12,-1.8562899,-8.360115,-13.795313,16.23724101,-1.189746907,-8.756260236,-1.981630199,10.03477349
45:40.6,1.42E+12,-2.5762925,-11.234737,-9.54565,14.96582883,-1.247395026,-8.805995816,-2.158107219,10.15842964
45:40.6,1.42E+12,-4.9566426,-10.904674,-1.045426,12.02385697,-1.360571674,-8.845423836,-2.165013856,10.21914408
45:40.6,1.42E+12,-4.882696,-7.8570113,-6.3391676,11.21420495,-1.471565852,-8.806522722,-2.267212332,10.24540145
45:40.7,1.42E+12,-1.9239491,-6.780899,-6.3767395,9.50499753,-1.515367765,-8.752580902,-2.361246786,10.24293057
45:40.7,1.42E+12,-3.6607873,-8.576415,-4.410728,10.31556006,-1.577904718,-8.732738162,-2.421397706,10.25552941
45:40.7,1.42E+12,-5.0705557,-10.851833,-4.4039917,12.7619731,-1.646671716,-8.764579922,-2.477087894,10.3199499
45:40.7,1.42E+12,-3.956123,-10.701396,-4.733157,12.35206706,-1.686752364,-8.795751082,-2.55057008,10.37881715
45:40.8,1.42E+12,-3.1365774,-9.66555,-3.8329294,10.86058573,-1.715941662,-8.807851902,-2.608050549,10.41074527
45:40.8,1.42E+12,-3.2808774,-8.444539,-2.8018734,9.482873509,-1.751034686,-8.791443022,-2.658989619,10.41253655
45:40.8,1.42E+12,-3.1802866,-8.161927,-2.3050566,9.057845281,-1.80843133,-8.779536782,-2.709973597,10.41837064
45:40.8,1.42E+12,-2.25536,-8.672964,-1.4835649,9.083386928,-1.879793932,-8.779934942,-2.718275333,10.42369736
45:40.9,1.42E+12,-1.1979588,-8.927884,-1.1035053,9.075237845,-1.94151059,-8.780758222,-2.713748747,10.42156517
45:40.9,1.42E+12,-0.2802173,-9.234447,-0.508792,9.252697035,-1.956886615,-8.793397942,-2.718167559,10.43419648
45:40.9,1.42E+12,0.45295808,-9.517359,-0.20657043,9.530370649,-1.933798627,-8.788539052,-2.725723845,10.4290644
45:40.9,1.42E+12,0.8702902,-9.709708,0.27258316,9.752442569,-1.895325633,-8.758930612,-2.740593922,10.39840459
45:40.9,1.42E+12,1.1099418,-10.3247795,-0.3264711,10.38939969,-1.854080405,-8.699135962,-2.783195332,10.33679613
45:40.9,1.42E+12,0.9571097,-9.951306,-0.680934,10.02039027,-1.819729837,-8.616861042,-2.81930624,10.2545956
45:40.9,1.42E+12,0.25252488,-9.882,-0.3381468,9.891007839,-1.758764613,-8.506408722,-2.871185356,10.1360571
45:41.0,1.42E+12,0.2535727,-10.272688,0.88436097,10.31380202,-1.659943111,-8.395079242,-2.887097269,10.01026448
45:41.0,1.42E+12,0.007484436,-9.993219,0.7893086,10.02434487,-1.575734222,-8.308589102,-2.86402425,9.912225066
45:41.0,1.42E+12,0.42122406,-9.24747,0.61776537,9.277648687,-1.502817853,-8.241914762,-2.824931543,9.836648572
45:41.0,1.42E+12,0.8201445,-8.354576,0.101638645,8.395350353,-1.438313991,-8.166585402,-2.77994709,9.753704162
45:41.1,1.42E+12,0.31255004,-8.433762,-0.5724097,8.458940942,-1.397733378,-8.080056342,-2.74893458,9.661902774
45:41.1,1.42E+12,-0.2585124,-9.17502,-0.87133807,9.219926827,-1.378492388,-8.001835002,-2.716700611,9.578793618
45:41.1,1.42E+12,-0.66791105,-9.936936,-0.5908214,9.976866851,-1.363478609,-7.941567342,-2.642517879,9.503949595
45:41.1,1.42E+12,-1.1654763,-9.662257,-0.58872575,9.750084274,-1.371043876,-7.876231202,-2.49671508,9.395730618
45:41.1,1.42E+12,-1.5045214,-9.250613,-0.7370673,9.401100666,-1.399209307,-7.814266062,-2.373497318,9.300849366
45:41.5,1.42E+12,-1.0813513,-8.790021,-0.71162015,8.884829377,-1.426548455,-7.727925602,-2.441815247,9.210822751
45:41.5,1.42E+12,-0.42167312,-8.938362,-0.16001724,8.949733459,-1.352141189,-7.681345462,-2.537077152,9.132680572
45:41.5,1.42E+12,-0.03876938,-9.001532,0.18785934,9.003575542,-1.241179937,-7.687494682,-2.597841793,9.096227509
45:41.5,1.42E+12,-0.04580475,-9.57439,0.21854553,9.576993479,-1.203889484,-7.693712742,-2.609017553,9.097961383
45:41.5,1.42E+12,-0.30356872,-9.745035,0.47975236,9.761558454,-1.251083342,-7.642327602,-2.582660362,9.042935198
45:41.5,1.42E+12,-0.16555573,-9.328601,0.23546036,9.333040603,-1.291672935,-7.635175462,-2.535331783,9.027766513
45:41.5,1.42E+12,0.08068222,-9.413624,0.32452515,9.419561721,-1.303285785,-7.662915782,-2.497870682,9.052131248
45:41.5,1.42E+12,0.6192622,-9.936487,0.1965413,9.957704959,-1.271369157,-7.713908742,-2.478725494,9.101488458
45:41.5,1.42E+12,0.41733214,-10.038425,0.6369255,10.06726461,-1.225202162,-7.766868614,-2.448512323,9.149265742
45:41.5,1.42E+12,-0.33455428,-10.356364,1.1799961,10.42873879,-1.187345887,-7.840066402,-2.384206053,9.210944014
45:41.5,1.42E+12,-1.864373,-10.433304,-1.0502161,10.65047759,-1.184816147,-7.927574436,-2.361345591,9.289087703
45:41.5,1.42E+12,-1.7781523,-10.75708,-3.7378771,11.5259846,-1.170934017,-8.043990336,-2.384819779,9.397863518
45:41.5,1.42E+12,-0.0477507,-11.671828,-2.4773483,11.93193629,-1.112217119,-8.211315376,-2.383538441,9.533959635
45:41.5,1.42E+12,0.1936972,-12.633279,-0.6117778,12.64956636,-1.058044771,-8.415281228,-2.347074269,9.701667573
45:41.5,1.42E+12,-2.1046233,-10.504556,-3.1939082,11.17927482,-1.067331457,-8.579253254,-2.360366629,9.849344482
45:41.5,1.42E+12,-2.5822802,-10.5394335,-2.2132974,11.0745887,-1.085452775,-8.761987264,-2.331216249,9.985390958
45:41.6,1.42E+12,-1.9844234,-10.433454,1.6139438,10.74242585,-1.081282447,-8.952313488,-2.202151633,10.09240843
45:41.6,1.42E+12,-0.8358618,-10.826985,3.7621267,11.49242648,-1.066984179,-9.13189205,-2.027797199,10.21202423
45:41.6,1.42E+12,0.9412427,-11.728111,2.9744647,12.13597815,-1.035274121,-9.31902091,-1.866238165,10.34145573
45:41.6,1.42E+12,1.6040643,-12.38764,1.7823436,12.6175828,-1.006749439,-9.513529434,-1.720264713,10.47125309
45:41.6,1.42E+12,0.5745053,-12.122092,1.1144326,12.18676047,-1.003674833,-9.702514438,-1.562043729,10.56868022
45:41.6,1.42E+12,0.15013778,-11.137889,1.9035915,11.30038819,-0.98722105,-9.847691546,-1.249565519,10.50920847
45:41.7,1.42E+12,-0.6225554,-10.288256,0.45325744,10.31703587,-0.96254636,-9.886254366,-0.96459411,10.39080437
45:41.7,1.42E+12,-1.9541862,-9.356144,1.6988173,9.707844996,-0.950104234,-9.848682506,-0.739704764,10.28564469
45:41.7,1.42E+12,-2.5459058,-8.629555,1.6627423,9.149621183,-0.901889498,-9.803180126,-0.685541398,10.22815998
45:41.7,1.42E+12,-2.543361,-7.2365513,1.6284636,7.841444611,-0.855102798,-9.790770926,-0.526188774,10.16070477
45:41.7,1.42E+12,-2.0628603,-6.597081,1.5135026,7.075843445,-0.857881022,-9.787094566,-0.368383932,10.11212169
45:41.7,1.42E+12,-2.2029688,-6.507268,0.9927356,6.941407086,-0.828724652,-9.745711626,-0.26031466,10.04463863
45:41.8,1.42E+12,-2.5821304,-6.0770626,1.6619939,6.808840648,-0.778956146,-9.650216218,-0.138994948,9.925575981
45:41.8,1.42E+12,-2.5629702,-5.312902,1.8273998,6.175365085,-0.75109309,-9.542446338,-0.007783812,9.802041941
45:41.8,1.42E+12,-2.3132894,-4.277505,1.4596148,5.077285913,-0.73462733,-9.434685438,0.098067072,9.686375945
45:41.8,1.42E+12,-2.199975,-4.2941203,-0.084574126,4.825610006,-0.713009282,-9.351677064,0.152413057,9.593230675
45:41.9,1.42E+12,-2.3114932,-4.381838,-1.1279045,5.080912677,-0.695633414,-9.276075284,0.175956099,9.513692023
45:41.9,1.42E+12,-2.2182372,-5.564828,-1.9423609,6.297670427,-0.694890958,-9.213912564,0.166780179,9.457977693
45:41.9,1.42E+12,-1.3953983,-9.342821,-4.5171566,10.47091899,-0.698839748,-9.222211304,0.098507153,9.485891315
45:41.9,1.42E+12,1.9993923,-16.612604,-8.926388,18.96461399,-0.653247556,-9.369774444,-0.069844767,9.680129655
45:41.9,1.42E+12,4.186045,-18.647472,-9.710157,21.43684524,-0.578585817,-9.552376704,-0.259916498,9.918259146
45:42.0,1.42E+12,2.5764422,-14.433885,-7.963889,16.6852815,-0.544462777,-9.646860244,-0.424645941,10.05691593
45:42.0,1.42E+12,-1.1394305,-10.231673,-5.8381596,11.83509788,-0.589450223,-9.644998114,-0.534879711,10.08582989
45:42.0,1.42E+12,-4.289031,-8.555758,-2.7271788,9.951597162,-0.694373037,-9.617087154,-0.575804607,10.08445403
45:42.0,1.42E+12,-4.527934,-5.7205043,0.49322432,7.312292799,-0.789982215,-9.53385724,-0.559177185,10.03287973
45:42.0,1.42E+12,-3.0184731,-6.1830425,1.4078224,7.023044804,-0.855423131,-9.45206433,-0.548707956,9.967064582
45:42.0,1.42E+12,-1.9324814,-12.216845,1.9399658,12.51995421,-0.894222448,-9.49653685,-0.525694812,10.01697677
45:42.1,1.42E+12,-3.7684135,-16.326698,-0.9440868,16.78252984,-0.978015199,-9.63812141,-0.556931856,10.16707439
45:42.1,1.42E+12,-2.8270211,-12.025244,-2.1540208,12.53947157,-1.050958511,-9.71153477,-0.602045045,10.24995682
45:42.1,1.42E+12,-1.9520906,-5.960904,3.9969883,7.437670985,-1.096251324,-9.66207761,-0.510657085,10.22953142
45:42.1,1.42E+12,-2.4593856,-5.4881873,5.697452,8.284306649,-1.140268788,-9.588340956,-0.379281283,10.21081901
45:42.2,1.42E+12,-1.9892135,-6.980434,5.9133034,9.362189182,-1.166694837,-9.529210916,-0.249198787,10.19852546
45:42.2,1.42E+12,-1.1102413,-10.028096,5.1669555,11.33546533,-1.165590137,-9.536527696,-0.134085162,10.23023308
45:42.2,1.42E+12,-0.1751358,-12.626094,2.7536738,12.92407218,-1.139002425,-9.604037316,-0.06427034,10.30069251
45:42.2,1.42E+12,1.5362554,-12.951367,-0.78721297,13.06589806,-1.086650291,-9.687264236,-0.065782197,10.38431388
45:42.2,1.42E+12,2.1962328,-10.150093,-3.0084438,10.81196377,-1.034292172,-9.711498856,-0.122750728,10.42155849
45:42.2,1.42E+12,0.5054988,-9.108109,-2.857408,9.559181925,-1.023406809,-9.713630396,-0.183656075,10.43267062
45:42.3,1.42E+12,-1.6245717,-8.86292,-0.5400769,9.02675286,-1.054982148,-9.699400996,-0.198828523,10.42166581
45:42.3,1.42E+12,-1.7887802,-9.270971,1.5690372,9.571442714,-1.084686377,-9.689919716,-0.177042827,10.41786349
45:42.3,1.42E+12,-0.7598199,-9.389974,1.8291962,9.596608606,-1.096571661,-9.691147176,-0.14516811,10.42313485
45:42.3,1.42E+12,-0.9846524,-9.284293,0.30416748,9.3413144,-1.117878353,-9.688560556,-0.145575263,10.42156991
45:42.3,1.42E+12,-1.8473085,-9.143886,-0.434247,9.338724235,-1.167209767,-9.672708536,-0.158191029,10.40919029
45:42.4,1.42E+12,-2.4662714,-8.811726,-0.41239244,9.159643947,-1.224881838,-9.648174556,-0.179177388,10.39103788
45:42.4,1.42E+12,-2.3674767,-8.96381,-0.07993378,9.271527655,-1.265540286,-9.620323476,-0.204375986,10.36789365
45:42.4,1.42E+12,-1.796564,-9.129964,0.061671752,9.305250574,-1.264184106,-9.594256676,-0.182138228,10.34098911
45:42.4,1.42E+12,-1.0388397,-9.452992,0.29892838,9.514599511,-1.249397854,-9.568174916,-0.101402119,10.30076141
45:42.4,1.42E+12,-0.66716266,-9.513467,0.60429335,9.555957871,-1.261786094,-9.525007696,-0.039769286,10.25324184
45:42.5,1.42E+12,-0.07095245,-9.907746,0.63617706,9.928403009,-1.267079087,-9.470497036,-0.014810189,10.19881858
45:42.5,1.42E+12,-0.27078688,-10.007739,0.14699432,10.01248085,-1.230402358,-9.460560696,0.052007862,10.1754827
45:42.5,1.42E+12,-0.7774832,-9.879905,-0.8183482,9.944179037,-1.194306418,-9.447370126,0.079906846,10.1528745
45:42.5,1.42E+12,-0.96130097,-9.890233,-1.3895603,10.0335281,-1.17384397,-9.436505706,0.019836764,10.13869655
45:42.6,1.42E+12,-0.20477417,-9.662407,-0.3835025,9.67218257,-1.161222217,-9.413214146,-0.06307582,10.10229167
45:42.6,1.42E+12,0.26225463,-9.681567,0.520318,9.699084899,-1.174801978,-9.372283266,-0.112158754,10.05355381
45:42.6,1.42E+12,0.068108365,-10.227482,0.7212002,10.25310473,-1.205521097,-9.329080106,-0.133381622,10.00626424
45:42.6,1.42E+12,0.13980927,-10.866503,0.6971004,10.88973751,-1.214215018,-9.303968326,-0.141728266,9.980323786
45:42.6,1.42E+12,0.87552935,-11.1215725,1.0753638,11.20769083,-1.199707186,-9.303641996,-0.15829282,9.978469838
45:42.6,1.42E+12,1.9341279,-12.65693,1.3522879,12.87506933,-1.14857352,-9.351015476,-0.140312211,10.02963051
45:42.7,1.42E+12,2.3540049,-13.93587,0.93660235,14.16428733,-1.062409698,-9.442609996,-0.15555651,10.11875935
45:42.7,1.42E+12,0.8674461,-14.438525,-1.8917661,14.587743,-0.99414266,-9.558789396,-0.226646678,10.22752179
45:42.7,1.42E+12,-0.5388794,-13.219759,-4.2662783,13.90156644,-0.954053028,-9.67845355,-0.344541516,10.34872423
45:42.7,1.42E+12,-0.6173163,-11.875405,-2.6652076,12.18645375,-0.925142148,-9.78402003,-0.42811572,10.45093643
45:42.8,1.42E+12,-0.24563919,-11.395054,0.14968872,11.39868418,-0.885995556,-9.88177575,-0.444976658,10.54008198
45:42.8,1.42E+12,0.3080594,-11.039693,3.5100508,11.58836394,-0.82819176,-9.981028358,-0.40801552,10.63567244
45:42.8,1.42E+12,1.2534933,-11.6104555,5.599855,12.95115047,-0.75186249,-10.10697943,-0.332566416,10.77118815
45:42.8,1.42E+12,1.219065,-11.665242,3.9381607,12.37227142,-0.681215402,-10.25473417,-0.282995498,10.91708786
45:42.8,1.42E+12,0.8321196,-11.903696,1.4066249,12.01536496,-0.62057351,-10.40692568,-0.253171517,11.06088296
45:42.8,1.42E+12,0.8080197,-11.898906,-0.55579424,11.9392532,-0.558183252,-10.55726704,-0.241729312,11.19804977
45:42.9,1.42E+12,-0.55938673,-10.913506,0.18875748,10.92946275,-0.525006243,-10.6642406,-0.199106944,11.29068561
45:42.9,1.42E+12,-2.171684,-10.277927,1.3879138,10.5961455,-0.540531957,-10.68294272,-0.081005536,11.29319015
45:42.9,1.42E+12,-1.9496956,-10.619217,5.5573435,12.14302884,-0.619513715,-10.56307498,0.208669094,11.15675844
45:42.9,1.42E+12,-1.4985337,-9.437275,1.9874171,9.759999457,-0.733205289,-10.37887104,0.442620576,10.92322153
45:43.0,1.42E+12,-1.1198213,-8.525222,0.63902116,8.622166661,-0.807130559,-10.26069778,0.614678779,10.76195923
45:43.0,1.42E+12,-1.5869998,-8.191715,1.7187259,8.519200768,-0.816081945,-10.21989862,0.765816489,10.69564129
45:43.0,1.42E+12,-1.8444644,-7.9668827,2.3523583,8.509221965,-0.767190613,-10.20812112,0.867407231,10.66679378
45:43.0,1.42E+12,-1.8282981,-7.9010196,2.0892055,8.374578454,-0.713197895,-10.25173142,0.899326854,10.6880395
45:43.0,1.42E+12,-2.420317,-7.4660244,1.974993,8.093210245,-0.701234773,-10.27739106,0.910670266,10.70944281
45:43.1,1.42E+12,-3.1744487,-7.249724,1.332978,8.025736912,-0.726074119,-10.17804864,0.89853051,10.61955846
45:43.1,1.42E+12,-3.5009198,-6.7612896,0.084723815,7.614371584,-0.720724245,-9.986740472,0.919106723,10.43619529
45:43.1,1.42E+12,-3.342549,-6.3474007,-1.0080038,7.244183952,-0.731034803,-9.873183606,0.942027063,10.33028954
45:43.1,1.42E+12,-3.6932697,-6.254743,-1.5853533,7.434742508,-0.765858385,-9.879060386,0.830380231,10.33023097
45:43.1,1.42E+12,-3.1362782,-6.7047076,-1.8498532,7.629633137,-0.779396237,-9.903390792,0.679434127,10.3171375
45:43.2,1.42E+12,-2.120191,-7.7192974,-2.3213727,8.334958514,-0.782015787,-9.91816806,0.514740605,10.29659289
45:43.2,1.42E+12,-0.87238586,-9.057964,-2.6948462,9.490519741,-0.777258678,-9.89876542,0.357504571,10.25969398
45:43.2,1.42E+12,0.87088895,-10.611134,-3.3415012,11.15886386,-0.756338183,-9.85846622,0.235601071,10.22438981
45:43.2,1.42E+12,2.6033862,-12.852424,-4.925208,14.00785837,-0.734995567,-9.85648736,0.15284117,10.24322902
45:43.2,1.42E+12,3.2811768,-13.794265,-8.930429,16.75710089,-0.713296687,-9.9293708,0.034401466,10.36213176
45:43.3,1.42E+12,1.674418,-11.574381,-7.3798037,13.82864685,-0.689918303,-9.97869624,-0.056046448,10.44752106
45:43.3,1.42E+12,-0.02350113,-8.745863,-2.941533,9.227312085,-0.657896892,-9.9763551,-0.10407557,10.45153224
45:43.3,1.42E+12,-0.68467623,-7.995773,-0.85277665,8.070216566,-0.635814812,-9.95085114,-0.152511847,10.42150772
45:43.3,1.42E+12,-0.31629226,-7.686516,-1.1737093,7.782041026,-0.626944259,-9.91678198,-0.212569957,10.38521637
45:43.3,1.42E+12,-0.11690689,-10.078841,1.1355386,10.14328108,-0.609589349,-9.93267294,-0.195942534,10.4012557
45:43.3,1.42E+12,-2.9298573,-16.834143,1.3230987,17.13834953,-0.631240325,-10.08647808,-0.16079562,10.55724821
45:43.4,1.42E+12,-2.9416828,-18.966759,-5.8245378,20.05783351,-0.640748553,-10.28957874,-0.269038528,10.775212
45:43.4,1.42E+12,-2.9017158,-5.4531603,3.7139268,7.207646226,-0.651433335,-10.21936575,-0.193161316,10.73393437
45:43.4,1.42E+12,-4.3980045,-1.488804,4.004323,6.131360666,-0.703462145,-10.06654255,-0.114308291,10.67045657
45:43.5,1.42E+12,-5.382357,-2.222578,3.4528697,6.769928287,-0.790332491,-9.921934266,-0.051229465,10.61556315
45:43.5,1.42E+12,-4.8475194,-5.0837283,2.9081526,7.602636997,-0.873939626,-9.833339492,-0.00515228,10.57649673
45:43.5,1.42E+12,-3.319497,-10.024055,3.87589,11.24825597,-0.938910517,-9.835665672,0.059641979,10.60289379
45:43.5,1.42E+12,-0.34563124,-17.073944,4.512965,17.66368811,-0.940407404,-9.976989772,0.146961393,10.75591793
45:43.5,1.42E+12,4.864584,-16.350948,-2.8945308,17.30306292,-0.82756606,-10.10641063,0.105437741,10.90309561
45:43.5,1.42E+12,5.9377027,-10.829829,-6.644982,14.02488129,-0.689585987,-10.12520255,0.000329307,10.98292268
45:43.5,1.42E+12,3.0389805,-9.664951,-0.8903485,10.17051625,-0.624710893,-10.12525343,-0.009807613,10.99288935
45:43.6,1.42E+12,0.6816824,-9.267977,1.9803817,9.501684074,-0.616322338,-10.11698163,0.019393661,10.98894133
45:43.6,1.42E+12,-1.7169297,-8.956326,0.41942778,9.129049385,-0.652023099,-10.09155851,0.013358212,10.96646023
45:43.6,1.42E+12,-3.30857,-8.849896,-0.4285588,9.457851622,-0.720990685,-10.05122637,-0.009154972,10.93782251
45:43.6,1.42E+12,-2.4995022,-9.638906,-0.012573852,9.957719529,-0.788491316,-10.02157304,-0.030913725,10.91282308
45:43.7,1.42E+12,-0.8547226,-9.772129,-0.61402315,9.828635732,-0.844268326,-9.963877022,-0.070239946,10.85189441
45:43.7,1.42E+12,-0.07978409,-10.105186,0.051193543,10.10563063,-0.892944105,-9.887263342,-0.087948122,10.77072128
45:43.7,1.42E+12,-0.37018022,-10.301128,0.67764086,10.33002752,-0.917696632,-9.804515402,-0.036559983,10.68556697
45:43.7,1.42E+12,-1.2766951,-9.928254,0.11511063,10.01066573,-0.932452946,-9.738685302,0.051067796,10.60774895
45:43.7,1.42E+12,-2.2272184,-9.390123,-0.39996827,9.658927807,-0.964650988,-9.688979662,0.096372583,10.55719843
45:43.8,1.42E+12,-1.7143849,-9.586964,-0.34862503,9.74528264,-0.994025902,-9.652817862,0.086406308,10.5241304
45:43.8,1.42E+12,-1.6862434,-9.548344,-0.14549744,9.697188224,-1.033911958,-9.622990882,0.013295343,10.48630689
45:43.8,1.42E+12,-1.5362554,-9.6356125,-0.36928207,9.764296091,-1.089706932,-9.583494022,-0.106087399,10.4225698
45:43.8,1.42E+12,-1.1406281,-9.513617,0.09894425,9.58226126,-1.136900794,-9.540461522,-0.182871728,10.3667696
45:43.8,1.42E+12,-1.0556048,-9.088799,-0.4098477,9.159068942,-1.174655282,-9.484163582,-0.21920118,10.30964368
45:43.9,1.42E+12,-0.43170226,-9.632769,-0.6584807,9.664895358,-1.199449721,-9.438840842,-0.221254909,10.26415652
45:43.9,1.42E+12,-0.3582051,-9.388776,-0.6568341,9.418537928,-1.195426089,-9.408346242,-0.23816674,10.23393802
45:43.9,1.42E+12,-0.366438,-9.379496,-0.3902385,9.394759609,-1.159321169,-9.390377622,-0.273729786,10.20991031
45:43.9,1.42E+12,-0.39083725,-8.945847,-0.7560777,8.986244254,-1.128144002,-9.356910222,-0.39999821,10.14677461
45:43.9,1.42E+12,-0.56911653,-8.970097,-0.51148635,9.002674719,-1.109555658,-9.347566662,-0.449976279,10.13162812
45:43.9,1.42E+12,-0.7623646,-9.208101,0.3465294,9.246102229,-1.102406524,-9.361224242,-0.455826115,10.14410683
45:44.0,1.42E+12,-1.0078541,-9.667197,0.5902226,9.737496107,-1.09082361,-9.390733882,-0.478396181,10.16847274
45:44.0,1.42E+12,-1.1925701,-9.624835,0.8150551,9.732624879,-1.077785724,-9.423892928,-0.509142245,10.1929408
45:44.0,1.42E+12,-1.0487192,-9.322015,1.2530442,9.464137329,-1.062194146,-9.452312836,-0.525865471,10.21473197
45:44.0,1.42E+12,-0.4349954,-9.158256,1.3236973,9.263641212,-1.022487714,-9.486157468,-0.538891385,10.23814059
45:44.1,1.42E+12,-0.03772156,-9.753717,1.0807526,9.813482787,-0.959753171,-9.536237328,-0.543935893,10.27389551
45:44.1,1.42E+12,-0.16795075,-10.532846,1.3650115,10.62225535,-0.89309379,-9.611668456,-0.518330139,10.33405319
45:44.1,1.42E+12,-0.42706192,-10.720407,1.9263442,10.90047293,-0.834784049,-9.699128582,-0.459643179,10.40717897
45:44.1,1.42E+12,-0.80397815,-10.917697,1.5076648,11.05059011,-0.776998218,-9.792387662,-0.397782817,10.47949592
45:44.1,1.42E+12,-1.0002201,-11.157049,1.1958632,11.2654459,-0.734277056,-9.88143449,-0.336868489,10.55221217
45:44.2,1.42E+12,-1.1304492,-11.061547,0.8123607,11.14879668,-0.71448222,-9.948279482,-0.274193821,10.60848894
45:44.2,1.42E+12,-0.8508307,-11.915522,0.4564009,11.95457566,-0.714051117,-10.00543064,-0.211168879,10.65777005
45:44.2,1.42E+12,-0.23261628,-13.457315,-0.321232,13.46315815,-0.736121221,-10.06235426,-0.150763495,10.70385594
45:44.2,1.42E+12,0.37736526,-14.16205,-0.5626799,14.17824649,-0.78064164,-10.08854678,-0.063512933,10.7072637
45:44.2,1.42E+12,-0.1419049,-13.956826,-1.093476,14.00031495,-0.849103274,-10.091798,0.093226127,10.65212798
45:44.3,1.42E+12,-0.69635195,-13.260624,-1.1668236,13.33006122,-0.896518673,-10.12552286,0.217485729,10.64215627
45:44.3,1.42E+12,-1.1758049,-12.349319,-1.041085,12.44877725,-0.919564748,-10.19759198,0.255494689,10.70658557
45:44.3,1.42E+12,-0.9473799,-11.608211,-1.3093272,11.72017188,-0.924818822,-10.26984074,0.246363678,10.77958468
45:44.3,1.42E+12,-0.34069154,-11.19492,-1.468596,11.29597622,-0.925306807,-10.34000882,0.240465944,10.84986338
45:44.3,1.42E+12,0.5040019,-10.706186,-1.729204,10.85663774,-0.912888632,-10.35255572,0.183171092,10.86413052
45:44.3,1.42E+12,1.0440788,-11.448493,-1.9200572,11.65524398,-0.83340991,-10.24484272,0.118307974,10.75446841
45:44.4,1.42E+12,0.4376898,-12.510235,-1.0568024,12.56241949,-0.765822458,-10.11571224,0.213662682,10.60456013
45:44.4,1.42E+12,-0.68946624,-14.638209,1.4795233,14.72893464,-0.721577466,-10.29941322,0.168974612,10.75498589
45:44.5,1.42E+12,-2.3089485,-15.072456,4.5185037,15.90368035,-0.679796346,-10.57108626,0.179258226,10.95043229
45:44.5,1.42E+12,-2.8340566,-12.995825,4.261189,13.96714273,-0.628830338,-10.7865512,0.195424612,11.09437658
45:44.5,1.42E+12,-4.1683817,-11.58441,0.66506696,12.32948803,-0.615247584,-10.91656483,0.150562899,11.1889136
45:44.5,1.42E+12,-5.15498,-12.456047,-2.3391857,13.68205816,-0.651957244,-10.96520467,0.026261385,11.23758964
45:44.5,1.42E+12,-5.72724,-11.952045,-3.5021174,13.70829982,-0.75958942,-10.86276669,-0.134040263,11.15848188
45:44.5,1.42E+12,-4.437522,-12.2521715,-0.36793488,13.03620666,-0.94563154,-10.78079116,-0.083508344,11.07314475
45:44.5,1.42E+12,2.2507195,-16.17716,2.6831703,16.55190765,-1.019371204,-10.88773778,0.103054702,11.12368528
45:44.5,1.42E+12,0.6578819,-10.095007,-2.4080424,10.39906934,-1.066993176,-10.8963389,0.072700824,11.12825634
45:44.6,1.42E+12,-0.086220704,-8.860674,-0.37586838,8.869061663,-1.082351238,-10.88819284,0.025575822,11.11560389
45:44.6,1.42E+12,-0.16226257,-9.111103,1.8971548,9.307938727,-1.051257895,-10.89128838,0.055130362,11.11918168
45:44.6,1.42E+12,0.006885681,-8.521929,1.9399658,8.739953581,-0.984948781,-10.88472904,0.102500854,11.10482372
45:44.6,1.42E+12,0.45490402,-8.313113,1.3150154,8.428763309,-0.925860657,-10.85821318,0.129052639,11.07424459
45:44.7,1.42E+12,-0.3632945,-7.0961437,1.5334113,7.26901565,-0.916032095,-10.80469347,0.172001328,11.02305219
45:44.7,1.42E+12,-1.5594571,-4.777765,0.8027806,5.08953844,-0.945625555,-10.69814505,0.18703307,10.92273035
45:44.7,1.42E+12,-2.4108865,-2.5417144,-0.5375322,3.544238518,-0.986439681,-10.54295678,0.162729608,10.78701457
45:44.7,1.42E+12,-3.1621742,-0.3861969,-1.3379178,3.455216022,-1.024149263,-10.35211564,0.13366904,10.65590557
45:44.7,1.42E+12,-3.1647189,0.5974077,-2.872377,4.315424812,-1.042899273,-10.15236503,0.084220865,10.54903551
45:44.8,1.42E+12,-2.5984466,-0.5125342,-3.810476,4.640511113,-1.060580507,-9.97087643,0.014983846,10.44694008
45:44.8,1.42E+12,-1.7685722,-1.773063,-3.4143996,4.234350559,-1.062227083,-9.81537081,-0.050394197,10.33768333
45:44.8,1.42E+12,-0.8801697,-3.4663417,-3.0440698,4.696443807,-1.049105369,-9.691985394,-0.103889952,10.23632628
45:44.8,1.42E+12,0.00119751,-5.6760464,-3.1799872,6.506137315,-1.026268857,-9.615233982,-0.169468581,10.1748038
45:44.8,1.42E+12,0.8038284,-6.839876,-4.937632,8.474093082,-0.989080193,-9.570255522,-0.260024267,10.16110429
45:44.9,1.42E+12,0.89543796,-6.6310606,-8.142318,10.5389808,-0.962537388,-9.510221354,-0.409701013,10.178586
45:44.9,1.42E+12,-0.6550378,-6.9009495,-11.079061,13.06896213,-0.968474042,-9.460464824,-0.618145551,10.25159448
45:44.9,1.42E+12,-2.376907,-10.670561,-11.034753,15.53307222,-1.008683422,-9.486286124,-0.831035841,10.37436073
45:44.9,1.42E+12,-1.6389418,-12.767849,-5.573061,14.02722735,-1.033645513,-9.562726164,-0.927375507,10.47518039
45:44.9,1.42E+12,-4.233646,-10.427466,-2.4525,11.51827079,-1.106936103,-9.591873544,-0.96619578,10.52549232
45:45.0,1.42E+12,-4.229754,-7.7255845,-5.68892,10.48519363,-1.176283891,-9.562223214,-1.086904768,10.55027414
45:45.0,1.42E+12,-2.9219239,-8.007149,-4.941524,9.852448113,-1.214565287,-9.529022254,-1.1975397,10.55257318
45:45.0,1.42E+12,-4.3397756,-9.960587,-3.9914498,11.57491327,-1.277509397,-9.535737294,-1.293669798,10.58941895
45:45.0,1.42E+12,-4.0061193,-11.192076,-4.2417293,12.62156189,-1.336657399,-9.573138514,-1.403565268,10.65256744
45:45.0,1.42E+12,-3.0005105,-11.185939,-3.0371842,11.97300223,-1.387967701,-9.613692174,-1.490782898,10.70675466
45:45.0,1.42E+12,-2.187551,-9.870923,-2.026486,10.3115055,-1.430964289,-9.616036294,-1.55292767,10.71671512
45:45.1,1.42E+12,-2.0342698,-8.691376,-1.5867004,9.066194822,-1.46829067,-9.579206894,-1.611961908,10.68559391
45:45.1,1.42E+12,-1.9053878,-8.287516,-1.4524297,8.626875225,-1.497857188,-9.530549074,-1.679537386,10.64012195
45:45.1,1.42E+12,-1.3956976,-8.34814,-0.8409512,8.50568117,-1.509691577,-9.479157934,-1.726509706,10.58922377
45:45.1,1.42E+12,-0.65264285,-8.841963,-0.13187577,8.86699744,-1.502740032,-9.432856214,-1.753064485,10.54125481
45:45.2,1.42E+12,-0.20252883,-9.964778,0.28096572,9.970795367,-1.484181625,-9.410920834,-1.763692385,10.51769478
45:45.2,1.42E+12,0.68961596,-11.071576,0.70114195,11.11516825,-1.453372691,-9.394041914,-1.758797564,10.50090663
45:45.2,1.42E+12,1.5188915,-11.038345,-0.14624588,11.14331547,-1.418342536,-9.345662514,-1.755297842,10.45450978
45:45.2,1.42E+12,1.2979509,-9.491163,-0.8481363,9.616973891,-1.399930823,-9.252244774,-1.76100697,10.36328433
45:45.2,1.42E+12,0.6186635,-8.602161,-0.1273851,8.625320015,-1.384719455,-9.145151474,-1.741685152,10.25578443
45:45.3,1.42E+12,0.25506958,-8.619676,0.03607498,8.623524583,-1.365691024,-9.052332514,-1.71762718,10.16165369
45:45.3,1.42E+12,0.8111632,-9.475446,-0.4219725,9.519460249,-1.325951662,-8.994855054,-1.70524493,10.10306735
45:45.3,1.42E+12,1.3334271,-9.517808,-0.70518357,9.636595915,-1.280335522,-8.953046994,-1.693162057,10.06139583
45:45.3,1.42E+12,1.219514,-9.764495,-0.9023236,9.881637763,-1.249131412,-8.924438494,-1.681836609,10.03310907
45:45.3,1.42E+12,0.6331833,-10.636881,-0.87687653,10.69172909,-1.246547784,-8.923052394,-1.66479006,10.02981089
45:45.4,1.42E+12,-0.89873105,-10.063124,-1.647474,10.23661823,-1.285403981,-8.895345014,-1.659338396,10.00143838
45:45.4,1.42E+12,-1.6934285,-9.559272,-1.5759228,9.835187539,-1.328026347,-8.836325754,-1.669720804,9.946893738
45:45.4,1.42E+12,-1.2759466,-9.922267,-1.1472144,10.0695344,-1.339755954,-8.742006914,-1.722255558,9.853705734
45:45.4,1.42E+12,-0.6709049,-9.996363,-0.2136058,10.02112838,-1.306995082,-8.640485054,-1.816897748,9.736054694
45:45.4,1.42E+12,-1.1099418,-9.544901,0.001796265,9.609220006,-1.272512786,-8.571466574,-1.902085603,9.64889624
45:45.5,1.42E+12,-1.29361,-8.893755,-0.12798385,8.988252594,-1.215017352,-8.517653474,-1.917946619,9.582071531
45:45.5,1.42E+12,-1.0782079,-8.429122,0.459245,8.510201874,-1.13348191,-8.437114974,-1.861978005,9.478634405
45:45.5,1.42E+12,-0.3198848,-8.901988,-0.004340973,8.907734588,-1.025334806,-8.376113834,-1.792022476,9.382623101
45:45.5,1.42E+12,0.07469467,-9.100176,-0.2933899,9.105210605,-0.935090472,-8.313073924,-1.790531577,9.30400318
45:45.5,1.42E+12,-0.0676593,-8.904533,-0.41643402,8.91452203,-0.981458048,-8.167621384,-1.852523663,9.151255467
45:45.6,1.42E+12,-0.32302827,-8.876691,-0.8545729,8.923580291,-1.001076252,-8.143255064,-1.821454273,9.121745686
45:45.6,1.42E+12,-0.12678635,-9.46362,-1.0609937,9.523753772,-1.001887565,-8.155313984,-1.83515678,9.134839528
45:45.6,1.42E+12,0.070503384,-9.530531,-0.298629,9.53546911,-0.997232246,-8.163702544,-1.879072456,9.139390136
45:45.6,1.42E+12,0.12783417,-9.587263,0.49352372,9.600808251,-0.994813276,-8.185009224,-1.908001297,9.156607229
45:45.6,1.42E+12,-0.048798524,-10.347233,1.2981006,10.42845517,-1.004887327,-8.225691624,-1.908339593,9.196601067
45:45.6,1.42E+12,0.7152127,-11.501483,2.5415647,11.80064369,-0.983317183,-8.31379841,-1.888176525,9.287233627
45:45.7,1.42E+12,0.9330098,-12.181369,1.7871337,12.34706867,-0.933467845,-8.46187049,-1.868489463,9.432384232
45:45.7,1.42E+12,-0.7405101,-12.550651,0.61761564,12.58763857,-0.900060317,-8.662049222,-1.845386506,9.613252233
45:45.7,1.42E+12,-2.756817,-13.480517,1.4786252,13.8387395,-0.891953173,-8.923935624,-1.789055646,9.820922703
45:45.7,1.42E+12,-3.6673737,-14.603782,2.1758752,15.21362913,-0.902006269,-9.227959418,-1.688090602,10.03888679
45:45.8,1.42E+12,-3.7139268,-14.374309,0.9448352,14.87638145,-0.924315873,-9.505194914,-1.592984378,10.2436042
45:45.8,1.42E+12,-3.6016603,-14.125076,-0.36838394,14.58168151,-0.960977635,-9.752235174,-1.532064065,10.45055081
45:45.8,1.42E+12,-2.74095,-13.295502,-1.8205142,13.69662193,-0.998193241,-9.94881838,-1.507592953,10.63055438
45:45.8,1.42E+12,-1.821113,-12.126882,-2.6851163,12.55338875,-1.034639451,-10.07783509,-1.497695535,10.75149941
45:45.8,1.42E+12,-1.3060341,-12.229718,-3.3693435,12.7524195,-1.076836701,-10.18563193,-1.466329765,10.83706593
45:45.9,1.42E+12,-0.6655161,-12.533287,-4.869075,13.46232098,-1.108055782,-10.30367646,-1.400864905,10.89553274
45:45.9,1.42E+12,0.8044272,-13.745616,-8.6315,16.25090319,-1.078866482,-10.44056979,-1.351913685,10.95917156
45:45.9,1.42E+12,2.090852,-14.431041,-8.231532,16.74469246,-0.989511302,-10.51577939,-1.295849265,10.98340396
45:45.9,1.42E+12,2.0224442,-12.054283,4.99646,13.20456859,-0.916283582,-10.50150807,-1.084458845,10.96695079
45:45.9,1.42E+12,-1.8399738,-12.294534,5.978867,13.79448877,-0.868410138,-10.53884943,-0.915831505,11.01247515
45:46.0,1.42E+12,-5.1359696,-9.420959,3.2615676,11.21474366,-0.88653445,-10.57275692,-0.736821753,11.02706615
45:46.0,1.42E+12,-3.69312,-9.035062,0.4989125,9.773453553,-0.901958372,-10.59331518,-0.628013023,11.02548626
45:46.0,1.42E+12,0.7171587,-11.244167,0.9969269,11.31103317,-0.800819686,-10.61898678,-0.528245489,11.02020866
45:46.0,1.42E+12,2.528392,-10.868749,-2.0796254,11.35109302,-0.67012946,-10.61252024,-0.485003411,10.99479928
45:46.1,1.42E+12,1.2222084,-8.924142,-3.4934354,9.661169427,-0.585675082,-10.5672843,-0.494128435,10.94856262
45:46.1,1.42E+12,-0.8839119,-8.341404,-1.8558408,8.590952567,-0.5596023,-10.53669392,-0.490715531,10.91415156
45:46.1,1.42E+12,-1.9764899,-7.463779,-0.89768326,7.773052458,-0.558446702,-10.51214198,-0.476935188,10.88828872
45:46.1,1.42E+12,-2.0778291,-7.1994286,-0.68422717,7.524447671,-0.561895528,-10.49038023,-0.461571138,10.86624017
45:46.1,1.42E+12,-1.5078145,-6.6847987,-1.3907579,6.992442046,-0.564137866,-10.45711341,-0.472567272,10.83597538
45:46.1,1.42E+12,-1.3608202,-5.6893687,-2.0968397,6.214296786,-0.578301413,-10.39406152,-0.51186655,10.78292137
45:46.1,1.42E+12,-1.8226099,-4.8880854,-2.2385948,5.676847048,-0.610703035,-10.29252767,-0.562257761,10.6970424
45:46.2,1.42E+12,-2.2378464,-3.909121,-2.3300545,5.071325022,-0.669252282,-10.14927857,-0.62288169,10.57616554
45:46.2,1.42E+12,-2.257755,-3.1124775,-2.5243506,4.599708662,-0.744785212,-9.990761218,-0.670443784,10.4452934
45:46.2,1.42E+12,-2.2450314,-2.5767417,-3.4995725,4.891499919,-0.815644858,-9.852472792,-0.723472508,10.35078392
45:46.2,1.42E+12,-1.7654288,-2.2932312,-4.740193,5.553834519,-0.863326704,-9.726294196,-0.815728666,10.28935421
45:46.3,1.42E+12,-1.1147319,-2.7572663,-4.989424,5.808570952,-0.890722733,-9.609046002,-0.916238646,10.23305514
45:46.3,1.42E+12,-0.33470398,-2.6512866,-4.399801,5.147775853,-0.913640077,-9.472562814,-0.995795216,10.14562145
45:46.3,1.42E+12,0.5281018,-3.3121624,-4.9055986,5.942575948,-0.929746583,-9.348449902,-1.079803516,10.07174105
45:46.3,1.42E+12,0.9451346,-4.425098,-5.8311243,7.380838863,-0.935234171,-9.241661962,-1.17837953,10.02172508
45:46.3,1.42E+12,0.46927413,-5.4337006,-6.8557434,8.760510144,-0.938512354,-9.137598354,-1.297956868,9.983100696
45:46.4,1.42E+12,-0.3091072,-5.977819,-9.551188,11.27187027,-0.926719877,-9.055892254,-1.456031148,10.00380574
45:46.4,1.42E+12,-1.6260686,-8.3918495,-12.00309,14.73571874,-0.925372679,-9.032543804,-1.664574492,10.10181636
45:46.4,1.42E+12,-1.7158818,-11.480676,-10.59392,15.71563911,-0.934171383,-9.063711984,-1.853508604,10.21473846
45:46.4,1.42E+12,-0.39877075,-12.056229,-5.6270986,13.31074432,-0.9287287,-9.104909304,-1.96177846,10.28053077
45:46.4,1.42E+12,-3.4052687,-8.29979,-1.251248,9.058034584,-0.974635238,-9.080007084,-1.986839345,10.26950707
45:46.5,1.42E+12,-4.125421,-6.1002645,-5.0440607,8.926078296,-1.031271458,-9.024137274,-2.085160882,10.26826358
45:46.5,1.42E+12,-1.4103671,-8.10325,-6.0954742,10.23750954,-1.037914642,-9.017619834,-2.216255266,10.30280973
45:46.5,1.42E+12,-2.637665,-10.147398,-4.3637257,11.35645476,-1.084270246,-9.042528034,-2.303442961,10.35178414
45:46.5,1.42E+12,-3.2117212,-11.3202095,-4.7038183,12.67234007,-1.149998564,-9.086928704,-2.391651529,10.42312673
45:46.5,1.42E+12,-2.8651917,-10.474917,-4.5277843,11.7657996,-1.205949212,-9.118336384,-2.473878534,10.48015228
45:46.6,1.42E+12,-2.6177564,-9.041049,-3.213817,9.945945671,-1.251843774,-9.121623544,-2.521063416,10.50059958
45:46.6,1.42E+12,-2.1159997,-8.384066,-1.9142194,8.856311497,-1.291628041,-9.100032464,-2.53812793,10.48725074
45:46.6,1.42E+12,-1.838926,-8.419242,-1.7127384,8.786282349,-1.329816629,-9.077806684,-2.566410118,10.472267
45:46.6,1.42E+12,-1.3359718,-9.448951,-0.8479866,9.58053114,-1.359092748,-9.075040444,-2.593240325,10.47186146
45:46.6,1.42E+12,-0.80233157,-9.987082,-0.57106245,10.03551967,-1.374163409,-9.067837424,-2.630623586,10.46400275
45:46.7,1.42E+12,-0.7541318,-10.750644,0.003891907,10.77706251,-1.403550299,-9.052820644,-2.681377041,10.44353113
45:46.7,1.42E+12,-0.45879593,-11.14657,0.37122804,11.16218288,-1.431386414,-9.032124664,-2.709695155,10.41983341
45:46.7,1.42E+12,-0.4010161,-10.2122135,0.43649232,10.22940096,-1.424596534,-8.985355914,-2.713317621,10.37266866
45:46.7,1.42E+12,-0.014968872,-9.680669,0.53528684,9.695468444,-1.369759571,-8.909358954,-2.732184388,10.28980324
45:46.7,1.42E+12,0.2228865,-9.592503,0.5867798,9.613017358,-1.291954367,-8.809133374,-2.763966296,10.177791
45:46.7,1.42E+12,0.2350113,-9.422306,-0.21510269,9.427690589,-1.212975605,-8.710093314,-2.787165054,10.06881719
45:46.8,1.42E+12,0.31150222,-9.021889,-0.41987687,9.037024474,-1.134712355,-8.608029574,-2.788194913,9.957924046
45:46.8,1.42E+12,0.83092207,-8.93941,-0.37392244,8.985727607,-1.063274914,-8.520907734,-2.759263077,9.863706159
45:46.8,1.42E+12,1.3198055,-8.803044,-0.007933502,8.901434332,-1.000456544,-8.454430974,-2.705719422,9.790667071
45:46.8,1.42E+12,1.2678635,-8.736134,-0.51717454,8.842792807,-0.948978592,-8.384559294,-2.648676042,9.712474537
45:46.9,1.42E+12,0.99333435,-9.411678,-0.35251695,9.470515514,-0.915801583,-8.322127114,-2.558344881,9.632638428
45:46.9,1.42E+12,0.42825943,-9.82437,-0.3930826,9.841553026,-0.923324938,-8.243702194,-2.393576533,9.504451425
45:46.9,1.42E+12,-0.33365616,-9.914932,-0.75278455,9.949064658,-0.971815101,-8.153380014,-2.244001584,9.368538868
45:46.9,1.42E+12,-0.5542973,-9.843979,-1.486409,9.9709869,-1.023349931,-8.109173934,-2.373658964,9.303867235
45:46.9,1.42E+12,-0.04685257,-9.938433,-1.8488054,10.10904185,-0.987487507,-8.062051914,-2.530212412,9.230158296
45:47.0,1.42E+12,0.5289999,-9.933643,-0.93450665,9.991516743,-0.874188117,-8.072305594,-2.614133897,9.205693758
45:47.0,1.42E+12,0.66970736,-9.6657,-0.24249573,9.691907378,-0.786931569,-8.084918354,-2.628962062,9.204062834
45:47.0,1.42E+12,0.48214737,-9.459129,-0.34727782,9.477773442,-0.791631796,-8.049217594,-2.655846156,9.16739764
45:47.0,1.42E+12,-0.3878435,-9.092392,-1.140179,9.171805875,-0.849956506,-8.013690454,-2.637057228,9.123811897
45:47.1,1.42E+12,-0.034129027,-9.270223,-0.8878038,9.312700728,-0.875083255,-8.020612074,-2.584944596,9.116842523
45:47.1,1.42E+12,0.429906,-9.324709,-0.8111632,9.369792038,-0.848806897,-8.040278174,-2.564051044,9.132419312
45:47.1,1.42E+12,0.48618898,-8.678353,-1.1761043,8.771169354,-0.799553319,-8.064569654,-2.569619465,9.15238165
45:47.1,1.42E+12,0.68437684,-8.702004,-0.91893905,8.777111954,-0.7443092,-8.094621162,-2.574313703,9.177434936
45:47.1,1.42E+12,0.4102968,-8.961265,0.40865022,8.97995595,-0.705946974,-8.140150488,-2.53832554,9.217185214
45:47.1,1.42E+12,-0.22662872,-9.091644,0.49202684,9.107768201,-0.683263145,-8.208195994,-2.48654821,9.275054642
45:47.2,1.42E+12,0.1607657,-9.64175,0.21330643,9.645449098,-0.643595633,-8.303269286,-2.437510185,9.354426683
45:47.2,1.42E+12,0.085921325,-10.056238,0.8376581,10.09143083,-0.597120278,-8.426211626,-2.374155933,9.4548288
45:47.2,1.42E+12,0.17558487,-10.818902,1.7146842,10.95534629,-0.548453481,-8.580340116,-2.289375237,9.581941552
45:47.2,1.42E+12,0.791554,-11.832893,3.3235388,12.31624231,-0.487721773,-8.765463142,-2.152913011,9.7304364
45:47.2,1.42E+12,1.3123211,-12.669205,3.220553,13.13784243,-0.426166775,-8.972982618,-1.993698091,9.882116558
45:47.3,1.42E+12,-0.12543915,-12.251722,0.9675879,12.2905107,-0.40638092,-9.162871732,-1.874557853,10.01175535
45:47.3,1.42E+12,-2.4725583,-12.633728,0.8475375,12.90127697,-0.449138006,-9.36252056,-1.769611083,10.16682538
45:47.3,1.42E+12,-3.686534,-14.001733,1.8821859,14.60074257,-0.533430722,-9.576311972,-1.633855393,10.33998871
45:47.4,1.42E+12,-2.233655,-14.327905,-0.07619156,14.50116828,-0.597006514,-9.774368112,-1.518756738,10.4823953
45:47.4,1.42E+12,-1.2388239,-14.050083,-1.4799724,14.18202508,-0.631168475,-9.94669576,-1.411241318,10.59082559
45:47.4,1.42E+12,-1.0972183,-13.154196,-1.7824932,13.31968627,-0.646930697,-10.0902233,-1.255867422,10.63178191
45:47.4,1.42E+12,-0.6956035,-12.047098,-2.040407,12.2384515,-0.628321395,-10.16332827,-1.056613762,10.58183657
45:47.4,1.42E+12,-0.08202942,-11.38218,-2.8056157,11.72314931,-0.595644347,-10.16135835,-0.900847676,10.50198677
45:47.4,1.42E+12,0.46403503,-11.899954,-3.497926,12.4120796,-0.578388231,-10.15823285,-0.858264224,10.48401348
45:47.5,1.42E+12,0.7138655,-12.372971,-4.393214,13.14915756,-0.496005547,-10.23969647,-0.921103544,10.56583594
45:47.5,1.42E+12,0.70368665,-12.58957,-3.4175432,13.0641513,-0.399423394,-10.36948258,-0.888573194,10.6485974
45:47.5,1.42E+12,-0.36524048,-10.977423,-0.36988083,10.98972375,-0.378520862,-10.42696604,-0.774061327,10.66364168
45:47.5,1.42E+12,-1.4343174,-10.452314,5.3923864,11.84845836,-0.35445391,-10.43306436,-0.578939085,10.67348176
45:47.5,1.42E+12,-1.5777191,-10.670711,-0.5240602,10.79944026,-0.321773868,-10.42007439,-0.495343923,10.63602376
45:47.5,1.42E+12,-3.5670822,-9.269624,-0.9187894,9.974676861,-0.335811678,-10.39596853,-0.423164025,10.6002013
45:47.6,1.42E+12,-2.720892,-8.774753,1.4019846,9.293282752,-0.33787439,-10.39064261,-0.330847993,10.58714805
45:47.6,1.42E+12,0.16974701,-9.404194,1.1805949,9.479529691,-0.292159456,-10.41104517,-0.268951707,10.59961241
45:47.6,1.42E+12,1.663341,-9.139844,-1.5459851,9.417723799,-0.222114116,-10.42545721,-0.265616641,10.61224124
45:47.6,1.42E+12,1.0214758,-8.330177,-2.8436365,8.86123751,-0.174965164,-10.40308173,-0.305529639,10.59785537
45:47.6,1.42E+12,-1.0153385,-8.312514,-2.411635,8.714630494,-0.179225302,-10.36959037,-0.34234109,10.57143758
45:47.7,1.42E+12,-2.2417383,-8.967103,-1.5540683,9.372804015,-0.208977432,-10.33391955,-0.373500294,10.54335241
45:47.7,1.42E+12,-2.186952,-9.086555,-1.7318985,9.50514141,-0.243540554,-10.29271925,-0.415562825,10.51021158
45:47.7,1.42E+12,-1.748963,-8.719368,-2.244283,9.171862193,-0.270499492,-10.26286234,-0.469178331,10.48906081
45:47.7,1.42E+12,-0.8469388,-8.710686,-3.2618668,9.339867823,-0.28713889,-10.24346268,-0.545121404,10.4819488
45:47.7,1.42E+12,-0.5218149,-8.44918,-3.9760318,9.352527056,-0.302032918,-10.22059622,-0.636377636,10.47673899
45:47.8,1.42E+12,-0.47166917,-7.879315,-4.1644897,8.924631709,-0.316166528,-10.1897364,-0.715365376,10.46667781
45:47.8,1.42E+12,-1.0918295,-6.65531,-4.434229,8.07140816,-0.344233162,-10.14240482,-0.795652419,10.44736549
45:47.8,1.42E+12,-1.3754897,-5.7425084,-4.0624022,7.167390479,-0.388361398,-10.07846679,-0.869422014,10.41099874
45:47.8,1.42E+12,-1.2015513,-5.312902,-4.3206153,6.952580079,-0.438788534,-10.00866395,-0.95567565,10.37202166
45:47.8,1.42E+12,-1.3501923,-4.6493316,-4.5445495,6.64019832,-0.49114965,-9.9269279,-1.036223149,10.32796977
45:47.9,1.42E+12,-1.2557387,-4.203708,-4.7017226,6.430725934,-0.536131111,-9.8227685,-1.123207262,10.26717398
45:47.9,1.42E+12,-1.0964699,-3.598517,-4.522246,5.882370247,-0.566625697,-9.69825144,-1.20579053,10.18799032
45:47.9,1.42E+12,-1.1796968,-3.2816257,-5.2635045,6.313891937,-0.58354651,-9.565585314,-1.296004929,10.11528687
45:47.9,1.42E+12,-1.3310322,-2.9036617,-6.525081,7.264955612,-0.599081208,-9.426778968,-1.396778369,10.06116624
45:47.9,1.42E+12,-1.6155903,-2.514471,-6.6141458,7.258072822,-0.630455963,-9.278299728,-1.492085177,10.00414686
45:48.0,1.42E+12,-1.386866,-2.3159838,-6.4041324,6.949826621,-0.668773281,-9.125946544,-1.601477692,9.943313058
45:48.0,1.42E+12,-0.9159453,-2.764601,-5.856721,6.540883377,-0.700486334,-8.987924564,-1.713762197,9.880292578
45:48.0,1.42E+12,-1.1428734,-3.3861086,-5.552703,6.603362906,-0.732986749,-8.866464156,-1.817870701,9.822804368
45:48.0,1.42E+12,-2.376608,-3.6275566,-6.3625193,7.69994054,-0.772762039,-8.757167448,-1.922317507,9.793367061
45:48.1,1.42E+12,-3.2950978,-5.422923,-8.387658,10.51753631,-0.837981415,-8.680221448,-2.072314591,9.817463772
45:48.1,1.42E+12,-2.941982,-8.807834,-11.039543,14.42583472,-0.905419175,-8.669883948,-2.276882187,9.918584626
45:48.1,1.42E+12,-2.0408561,-8.981024,-10.109528,13.67576112,-0.955960076,-8.675937368,-2.455550661,10.01667646
45:48.1,1.42E+12,-1.9181113,-5.6718554,-9.128018,10.91649244,-1.008009839,-8.615334396,-2.61973224,10.05946407
45:48.1,1.42E+12,-0.6969507,-4.4176135,-7.226822,8.498706109,-1.030154789,-8.524461366,-2.772441684,10.04983907
45:48.1,1.42E+12,-1.2439133,-3.2922537,-5.6034474,6.617014243,-1.050500481,-8.40847356,-2.894351169,10.000024
45:48.2,1.42E+12,-2.0898042,-4.444258,-7.188202,8.705685427,-1.095511879,-8.30452372,-3.042381338,9.981228722
45:48.2,1.42E+12,-2.8981233,-8.149353,-7.3721695,11.36485619,-1.155192771,-8.26638602,-3.20657789,10.00669723
45:48.2,1.42E+12,-2.003883,-10.259665,-7.685468,12.97469427,-1.198782129,-8.25520128,-3.394580934,10.04708419
45:48.2,1.42E+12,-1.8275496,-10.067016,-6.5401998,12.14326818,-1.251164201,-8.21988374,-3.591855706,10.04362471
45:48.2,1.42E+12,-3.1509476,-8.358468,-5.921985,10.71738608,-1.340429575,-8.133669,-3.774706466,9.995215579
45:48.3,1.42E+12,-2.9850924,-8.297695,-5.9300685,10.62676956,-1.39762264,-8.05458846,-3.912659594,9.961940756
45:48.3,1.42E+12,-2.765499,-8.922196,-5.169949,10.67623243,-1.403481454,-7.98035782,-4.033009324,9.917439865
45:48.3,1.42E+12,-2.6295817,-9.548793,-4.706513,10.96564692,-1.382342408,-7.89129902,-4.164783302,9.844737952
45:48.3,1.42E+12,-2.0531304,-9.779015,-4.0460863,10.78031971,-1.378731916,-7.80032122,-4.244181197,9.770320981
45:48.4,1.42E+12,-1.3145664,-10.049353,-3.297942,10.65804869,-1.380246766,-7.72030662,-4.280540589,9.699841453
45:48.4,1.42E+12,-0.7247928,-9.931697,-2.5060885,10.26861283,-1.372798256,-7.65585664,-4.295012495,9.638819984
45:48.4,1.42E+12,-0.41658372,-9.936038,-2.2637424,10.19916285,-1.36721786,-7.61363544,-4.299479203,9.598034211
45:48.4,1.42E+12,0.10044113,-9.641002,-2.7255323,10.01935798,-1.363568449,-7.57881188,-4.297877535,9.563958385
45:48.4,1.42E+12,0.58213943,-9.457783,-1.640738,9.616681693,-1.361206361,-7.52996846,-4.260733775,9.508050427
45:48.4,1.42E+12,0.98644865,-9.494756,-0.22543122,9.54852301,-1.355754698,-7.47240416,-4.177378119,9.436037736
45:48.4,1.42E+12,0.98510146,-9.528436,0.22228774,9.581801988,-1.350126402,-7.41118148,-4.1045815,9.366390749
45:48.5,1.42E+12,1.1755055,-9.39162,0.14489868,9.466009457,-1.319311482,-7.37946542,-4.09428591,9.335916463
45:48.5,1.42E+12,0.7629634,-8.916208,-0.68018556,8.974604763,-1.275365866,-7.3487433,-4.215737349,9.278439392
45:48.5,1.42E+12,0.6328839,-8.66548,-1.5247293,8.821331254,-1.231153806,-7.30863868,-4.235750731,9.238877211
45:48.5,1.42E+12,0.84199905,-9.296418,-1.5486795,9.462069447,-1.142972181,-7.30917456,-4.248348533,9.228625063
45:48.6,1.42E+12,1.4838643,-10.122101,-0.6423143,10.25043168,-1.058877055,-7.33612152,-4.289234511,9.247768042
45:48.6,1.42E+12,1.5965799,-9.705368,-0.4674779,9.846916826,-1.030340397,-7.342145,-4.322195967,9.255115784
45:48.6,1.42E+12,1.518143,-9.031769,-2.0968397,9.39544284,-1.033244357,-7.3399835,-4.333213059,9.254670165
45:48.6,1.42E+12,1.379681,-9.097182,-2.463577,9.525305855,-1.026080253,-7.3553236,-4.325611869,9.267951532
45:48.7,1.42E+12,1.0985656,-9.648336,-2.746788,10.09168362,-0.983802171,-7.38204004,-4.332314929,9.295492595
45:48.7,1.42E+12,0.46119094,-9.801019,-2.475103,10.11922949,-0.929743587,-7.39871836,-4.350735623,9.310421104
45:48.7,1.42E+12,0.26869124,-9.257199,-1.061293,9.321709668,-0.880630722,-7.40213124,-4.337323513,9.306752469
45:48.7,1.42E+12,0.065413974,-9.634266,-0.34563124,9.640685728,-0.844343182,-7.4204292,-4.299350478,9.31612894
45:48.7,1.42E+12,0.03891907,-10.18512,0.3107538,10.18993386,-0.826626025,-7.44991788,-4.227898066,9.333130261
45:48.7,1.42E+12,-0.23126908,-9.914184,-0.2830614,9.920919994,-0.820815109,-7.47921796,-4.154038658,9.34449812
45:48.8,1.42E+12,-0.37751496,-9.565558,0.2017804,9.575130951,-0.818932024,-7.51294282,-4.066713256,9.357508104
45:48.8,1.42E+12,-0.8322693,-9.209898,-0.016166382,9.247440441,-0.81374082,-7.56403458,-3.978352004,9.38102875
45:48.8,1.42E+12,-0.99647784,-9.216634,-0.13965958,9.271397693,-0.806160583,-7.633517092,-3.899897151,9.423108894
45:48.8,1.42E+12,-0.022004241,-9.304202,-0.2891986,9.308721441,-0.782569642,-7.713343092,-3.819268817,9.470231721
45:48.8,1.42E+12,0.28321105,-9.3012085,-0.07005432,9.305782915,-0.749901575,-7.80638063,-3.729778914,9.523543413
45:48.9,1.42E+12,0.12723541,-9.355246,-0.44487488,9.366681922,-0.722242093,-7.90941139,-3.644641959,9.582262533
45:48.9,1.42E+12,0.321232,-9.418414,-0.1366658,9.424881422,-0.693888055,-8.02580933,-3.556930355,9.653112757
45:48.9,1.42E+12,0.5096901,-9.117241,-0.46777725,9.143450279,-0.660100317,-8.142521636,-3.46101581,9.709703923
